,user_acc_x(G),user_acc_y(G),user_acc_z(G),attitude_roll(radians),attitude_pitch(radians),attitude_yaw(radians),rotation_rate_x(radians/s),rotation_rate_y(radians/s),rotation_rate_z(radians/s),gravity_x(G),gravity_y(G),gravity_z(G),magnetic_field_x(microteslas),magnetic_field_y(microteslas),magnetic_field_z(microteslas),LabelOnTable,LabelWalking,LabelRunning
2018-06-11 19:54:56.344709,-0.0014377692307692307,0.00098200000000000002,-0.0014270769230769231,0.0316837692308,0.0878553076923,-0.0300893076923,-0.000583538461538,0.00167084615385,-0.00317423076923,0.0315562307692,-0.0877422307692,-0.995643230769,18.5720337692,-0.129469538462,-46.0477974615,1,0,0
2018-06-11 19:54:56.594709,-0.0019367499999999999,7.0750000000000026e-05,-0.0015954166666666662,0.0314483333333,0.0876705,-0.0306358333333,-0.000334333333333,0.00307441666667,-0.00219441666667,0.0313225,-0.0875581666667,-0.99566675,18.5587085,-0.11005975,-46.0532213333,1,0,0
2018-06-11 19:54:56.844709,-0.00092769230769230776,0.0010509230769230769,-0.0010028461538461541,0.0315817692308,0.0874566923077,-0.0311485384615,0.00179707692308,0.00152853846154,-0.00224861538462,0.0314558461538,-0.0873451538462,-0.995681307692,18.5630833077,-0.0911894615385,-46.0514945385,1,0,0
2018-06-11 19:54:57.094709,-0.0010498333333333336,0.00017425000000000006,-0.0018453333333333332,0.0311758333333,0.08765825,-0.0316891666667,0.00193258333333,-0.00146075,-0.00252025,0.0310511666667,-0.0875460833333,-0.995676333333,18.5436031667,-0.0907,-46.05934525,1,0,0
2018-06-11 19:54:57.344709,-0.0010653076923076922,0.00057107692307692306,-0.0016263076923076921,0.0310670769231,0.0874827692308,-0.0323387692308,0.000248769230769,0.00205315384615,-0.00215784615385,0.0309432307692,-0.0873710769231,-0.995695076923,18.5347845385,-0.0728503846154,-46.0629286154,1,0,0
2018-06-11 19:54:57.594709,-0.0012708333333333332,-6.0833333333333595e-06,-0.0018550833333333334,0.0309271666667,0.08739175,-0.03294125,0.00157991666667,0.000890083333333,-0.00301416666667,0.03080425,-0.0872805833333,-0.99570725,18.5266361667,-0.0572125833333,-46.0662271667,1,0,0
2018-06-11 19:54:57.844709,-0.00064092307692307691,0.00032792307692307689,-0.001693923076923077,0.0308031538462,0.0873824615385,-0.0335878461538,0.00161561538462,0.00127830769231,-0.00251046153846,0.0306808461538,-0.0872714615385,-0.995711923077,18.5175568462,-0.0459266923077,-46.0698926154,1,0,0
2018-06-11 19:54:58.094709,-0.0015593333333333334,0.00099008333333333348,-0.0021079166666666664,0.0305451666667,0.087363,-0.0342565833333,0.00162241666667,0.0006965,-0.00348675,0.030424,-0.0872519166667,-0.9957215,18.5039970833,-0.0344578333333,-46.07534975,1,0,0
2018-06-11 19:54:58.344709,6.2538461538461532e-05,0.0010158461538461539,-0.0016108461538461539,0.0305172307692,0.0872823846154,-0.0350153846154,0.00213384615385,0.00134023076923,-0.00286646153846,0.0303963846154,-0.0871717692308,-0.995729384615,18.4975649231,-0.0175785384615,-46.0779428462,1,0,0
2018-06-11 19:54:58.594709,-0.0013883333333333334,0.00057325000000000008,-0.0015618333333333335,0.03057375,0.0873033333333,-0.0357251666667,0.001426,0.000717833333333,-0.00309583333333,0.03045275,-0.0871924166667,-0.995726,18.4992548333,-0.00619133333333,-46.0772649167,1,0,0
2018-06-11 19:54:58.844709,-0.00093492307692307701,0.00038915384615384615,-0.0015652307692307691,0.0304773846154,0.087418,-0.0364494615385,0.000813769230769,0.00208807692308,-0.00284084615385,0.0303561538462,-0.0873067692308,-0.995718923077,18.4909882308,0.00101976923077,-46.0805852308,1,0,0
2018-06-11 19:54:59.094709,-0.00068241666666666667,0.00099366666666666679,-0.0016760833333333335,0.0306965,0.0874200833333,-0.0372485833333,0.00137958333333,0.00031675,-0.00307391666667,0.0305743333333,-0.0873090833333,-0.995711916667,18.4981064167,0.0138836666667,-46.0777256667,1,0,0
2018-06-11 19:54:59.344709,-0.00078107692307692296,0.00048415384615384602,-0.0010497692307692306,0.0304914615385,0.0874390769231,-0.0380901538462,0.001662,0.00114346153846,-0.00334953846154,0.0303702307692,-0.0873276923077,-0.995716461538,18.4852407692,0.0278899230769,-46.0828826923,1,0,0
2018-06-11 19:54:59.594709,-0.00020675000000000001,0.00069424999999999999,-0.0017719166666666671,0.0306198333333,0.0875101666667,-0.0388854166667,0.0016675,0.000908416666667,-0.003538,0.03049775,-0.0873983333333,-0.9957065,18.487329,0.0379385833333,-46.0820376667,1,0,0
2018-06-11 19:54:59.844709,-0.00093230769230769246,0.00093253846153846165,-0.0022574615384615385,0.0305372307692,0.0874758461538,-0.039715,0.00125323076923,0.00144146153846,-0.00326476923077,0.0304158461538,-0.0873641538462,-0.995711923077,18.4807623846,0.0529826153846,-46.0846563077,1,0,0
2018-06-11 19:55:00.094709,-0.00080383333333333316,0.00050500000000000002,-0.0011200833333333332,0.0303045833333,0.0873024166667,-0.0404591666667,0.00137575,0.00035975,-0.00278866666667,0.0301845833333,-0.0871914166667,-0.995734083333,18.4673888333,0.0743813333333,-46.0899880833,1,0,0
2018-06-11 19:55:00.344709,-0.0001790769230769231,0.00033476923076923088,-0.0017291538461538464,0.0302428461538,0.0874717692308,-0.0412279230769,0.00122046153846,0.00102038461538,-0.00263230769231,0.0301227692308,-0.0873602307692,-0.995721230769,18.4604518462,0.0796049230769,-46.0927578462,1,0,0
2018-06-11 19:55:00.594709,-0.00056933333333333337,0.00083258333333333318,-0.00147175,0.0303070833333,0.08744225,-0.0419453333333,0.00152833333333,0.000799833333333,-0.00290183333333,0.0301865833333,-0.087331,-0.995721833333,18.46090575,0.0929201666667,-46.0925515833,1,0,0
2018-06-11 19:55:00.844709,-0.00056776923076923085,0.0011495384615384614,-0.0019676153846153845,0.0302263846154,0.0874520769231,-0.0427148461538,0.00167753846154,0.000282769230769,-0.00286215384615,0.0301062307692,-0.0873405384615,-0.995723307692,18.4541818462,0.105107615385,-46.0952183077,1,0,0
2018-06-11 19:55:01.094709,-0.00038174999999999993,7.1333333333333351e-05,-0.0011858333333333332,0.0301069166667,0.0874695,-0.0434026666667,0.00148275,0.000806583333333,-0.00262758333333,0.0299873333333,-0.0873579166667,-0.995725666667,18.4455861667,0.116903583333,-46.09863,1,0,0
2018-06-11 19:55:01.344709,0.00037399999999999998,0.00071284615384615375,-0.0014036153846153847,0.0301673076923,0.0875048461538,-0.0441163846154,0.00113830769231,0.000616923076923,-0.00244276923077,0.0300472307692,-0.0873932307692,-0.995720461538,18.4446447692,0.126961615385,-46.0989796154,1,0,0
2018-06-11 19:55:01.594709,-0.00061991666666666662,0.00044858333333333339,-0.0017614999999999998,0.03022775,0.0875278333333,-0.04479325,0.00144075,0.000823416666667,-0.00296033333333,0.0301075833333,-0.087416,-0.995716916667,18.4455119167,0.1375475,-46.0986016667,1,0,0
2018-06-11 19:55:01.844709,-0.00040823076923076924,0.00072215384615384622,-0.0019281538461538464,0.0302218461538,0.0874849230769,-0.0454822307692,0.00158253846154,0.000221923076923,-0.00288853846154,0.0301019230769,-0.0873733846154,-0.995720846154,18.4423041538,0.150954615385,-46.0998434615,1,0,0
2018-06-11 19:55:02.094709,-0.00029083333333333332,0.00049016666666666664,-0.0019886666666666668,0.03023075,0.0875340833333,-0.0461819166667,0.00181966666667,0.000494583333333,-0.00265158333333,0.0301103333333,-0.087422,-0.99571625,18.4394851667,0.161071083333,-46.1009369167,1,0,0
2018-06-11 19:55:02.344709,-0.00050323076923076927,0.00091969230769230778,-0.0012067692307692304,0.0301432307692,0.0875712307692,-0.0469063076923,0.000627923076923,0.000407615384615,-0.002859,0.0300230769231,-0.0874593846154,-0.995715538462,18.4328546923,0.171058076923,-46.103552,1,0,0
2018-06-11 19:55:02.594709,-0.00072208333333333358,0.00032841666666666669,-0.0018044166666666666,0.0299803333333,0.0875055833333,-0.0475110833333,0.00105383333333,-0.000355583333333,-0.00270166666667,0.0298611666667,-0.08739375,-0.995726083333,18.4231776667,0.184670666667,-46.1073684167,1,0,0
2018-06-11 19:55:02.844709,-0.00039969230769230761,0.00082784615384615405,-0.0018987692307692308,0.0298528461538,0.0874897692308,-0.0481176153846,0.00161515384615,0.000271538461538,-0.00238353846154,0.0297341538462,-0.0873782307692,-0.995731461538,18.4139257692,0.195558769231,-46.1110195385,1,0,0
2018-06-11 19:55:03.094709,7.4583333333333362e-05,0.00068566666666666678,-0.0018689166666666665,0.0299045,0.0874809166667,-0.04871875,0.00134633333333,0.000657833333333,-0.00267008333333,0.0297855,-0.0873694166667,-0.995730666667,18.4134729167,0.20620375,-46.111153,1,0,0
2018-06-11 19:55:03.344709,-0.00050846153846153847,0.00071907692307692308,-0.0016416153846153848,0.0300456153846,0.0874086923077,-0.0492975384615,0.00145930769231,0.000715846153846,-0.00184430769231,0.029926,-0.0872971538462,-0.995732615385,18.4178825385,0.219657692308,-46.1093296154,1,0,0
2018-06-11 19:55:03.594709,-0.00043858333333333331,0.00019883333333333333,-0.0016920833333333334,0.0298744166667,0.0874340833333,-0.0497901666667,0.00117658333333,-9.3e-05,-0.00190091666667,0.02975575,-0.08732275,-0.995735583333,18.4086494167,0.227083,-46.1129816667,1,0,0
2018-06-11 19:55:03.844709,-0.00029015384615384618,0.00041407692307692315,-0.0018902307692307693,0.0298653076923,0.0874006923077,-0.0503016923077,0.000904846153846,0.000432538461538,-0.00187207692308,0.0297466153846,-0.0872893076923,-0.995738846154,18.4056056923,0.236935769231,-46.1141469231,1,0,0
2018-06-11 19:55:04.094709,-0.0006020000000000001,0.00030483333333333333,-0.00085500000000000018,0.0298035833333,0.0874103333333,-0.0507589166667,0.000851583333333,0.000491583333333,-0.00204258333333,0.0296853333333,-0.0872991666667,-0.99573975,18.4004786667,0.244629083333,-46.1161534167,1,0,0
2018-06-11 19:55:04.344709,0.00030030769230769228,0.00060892307692307689,-0.0013683846153846155,0.0297975384615,0.0873484615385,-0.0513091538462,0.00125607692308,0.000317769230769,-0.00230623076923,0.0296796923077,-0.0872376153846,-0.995745384615,18.397347,0.256468692308,-46.1173372308,1,0,0
2018-06-11 19:55:04.594709,0.00025199999999999995,0.00020808333333333334,-0.0018907500000000001,0.029936,0.0872124166667,-0.0518270833333,0.000780583333333,0.000105666666667,-0.00190166666667,0.0298179166667,-0.0871018333333,-0.995753,18.40143925,0.27083875,-46.1156224167,1,0,0
2018-06-11 19:55:04.844709,-0.00091238461538461536,0.00064984615384615385,-0.0016620000000000001,0.0299685384615,0.0872506923077,-0.05225,0.000855153846154,0.000288461538462,-0.00177061538462,0.02985,-0.08714,-0.995748692308,18.4020473077,0.277136538462,-46.1153430769,1,0,0
2018-06-11 19:55:05.094709,-0.0002729166666666667,0.00046349999999999999,-0.0018018333333333335,0.0299995833333,0.08711875,-0.05269025,0.000536416666667,0.000341916666667,-0.001776,0.02988125,-0.08700875,-0.99575925,18.40126925,0.290482083333,-46.115571,1,0,0
2018-06-11 19:55:05.344709,-0.00045023076923076923,0.00043769230769230772,-0.0020757692307692309,0.0300924615385,0.0871061538462,-0.0531309230769,0.000955153846154,0.000342461538462,-0.00172684615385,0.0299736923077,-0.0869960769231,-0.995757769231,18.4036742308,0.298856923077,-46.1145576154,1,0,0
2018-06-11 19:55:05.594709,0.00013341666666666661,-8.0666666666666671e-05,-0.0015626666666666668,0.0299493333333,0.0872225,-0.0535271666667,0.000380333333333,0.00111191666667,-0.00130908333333,0.0298310833333,-0.0871118333333,-0.99575175,18.3951995833,0.30039825,-46.1179286667,1,0,0
2018-06-11 19:55:05.844709,-3.9384615384615432e-05,0.00070376923076923069,-0.0016223846153846154,0.0299052307692,0.0872766923077,-0.0539183076923,0.00146038461538,0.000235230769231,-0.00143376923077,0.0297869230769,-0.0871659230769,-0.995748461538,18.3916468462,0.303867846154,-46.1193227692,1,0,0
2018-06-11 19:55:06.094709,-0.00038299999999999988,0.00060041666666666663,-0.00108975,0.0298039166667,0.0871276666667,-0.0543245833333,0.000673666666667,0.000291166666667,-0.00143775,0.0296863333333,-0.0870171666667,-0.99576425,18.3855253333,0.31733425,-46.1216726667,1,0,0
2018-06-11 19:55:06.344709,-0.0015469230769230772,0.00031776923076923079,0.0012256153846153845,0.0298155384615,0.0870587692308,-0.0547099230769,0.000428,0.000948307692308,-0.001501,0.0296982307692,-0.0869488461538,-0.995769923077,18.3849003846,0.327907538462,-46.1218477692,1,0,0
2018-06-11 19:55:06.594709,0.0009053333333333334,0.00049808333333333334,-0.0012064999999999999,0.029696,0.0870426666667,-0.0550809166667,0.00079475,0.000357166666667,-0.00123941666667,0.0295791666667,-0.0869328333333,-0.995775,18.3768975,0.334286666667,-46.1249921667,1,0,0
2018-06-11 19:55:06.844709,2.6846153846153841e-05,0.00033153846153846151,-0.0016565384615384615,0.0297627692308,0.087015,-0.0553982307692,0.000849923076923,2.56153846154e-05,-0.000960307692308,0.0296457692308,-0.0869053076923,-0.995775307692,18.3785506923,0.341159153846,-46.1242824615,1,0,0
2018-06-11 19:55:07.094709,0.00021224999999999998,0.00037541666666666669,-0.0017996666666666666,0.0297904166667,0.0870036666667,-0.0557410833333,0.00127475,-1.91666666667e-05,-0.00139041666667,0.0296734166667,-0.086894,-0.995775583333,18.3783985,0.347798083333,-46.1242946667,1,0,0
2018-06-11 19:55:07.344709,-0.00015215384615384613,0.00028438461538461527,-0.0010341538461538463,0.029888,0.08697,-0.0560694615385,0.000401769230769,0.000819846153846,-0.00136753846154,0.0297705384615,-0.0868601538462,-0.995775538462,18.3812921538,0.355029076923,-46.123086,1,0,0
2018-06-11 19:55:07.594709,-0.00081766666666666663,0.00011966666666666667,-0.0016710833333333334,0.0298149166667,0.08701125,-0.0563585,0.00060125,-0.000309333333333,-0.00103033333333,0.0296975,-0.0869013333333,-0.995774083333,18.3773346667,0.357963833333,-46.12464075,1,0,0
2018-06-11 19:55:07.844709,0.00014630769230769235,0.00066561538461538472,-0.0018803076923076926,0.0298743076923,0.0868507692308,-0.0566415384615,0.000760076923077,0.000548461538462,-0.00134538461538,0.0297573846154,-0.0867417692308,-0.995786230769,18.3780826923,0.369579923077,-46.1242508462,1,0,0
2018-06-11 19:55:08.094709,-5.1583333333333331e-05,0.00024233333333333331,-0.001968583333333333,0.0299874166667,0.08680225,-0.0569371666667,0.000642416666667,0.00010875,-0.00103191666667,0.0298698333333,-0.08669325,-0.995787083333,18.3818565833,0.377455583333,-46.12268225,1,0,0
2018-06-11 19:55:08.344709,-0.00015641666666666666,3.4499999999999971e-05,-0.0019448333333333334,0.0300541666667,0.0868125,-0.0572161666667,0.000801,0.000362583333333,-0.00125666666667,0.0299364166667,-0.0867034166667,-0.99578425,18.383962,0.3816515,-46.1218096667,1,0,0
2018-06-11 19:55:08.594709,-0.00022523076923076926,0.00056146153846153846,-0.0013523076923076924,0.0299953846154,0.0868793846154,-0.0575041538462,0.000933692307692,0.000269615384615,-0.00113161538462,0.0298778461538,-0.0867700769231,-0.995780230769,18.3801730769,0.383552923077,-46.1233038462,1,0,0
2018-06-11 19:55:08.844709,-0.00034025,0.00024916666666666674,-0.0012040833333333333,0.0297844166667,0.0869574166667,-0.0577520833333,0.000754666666667,0.00025125,-0.00108525,0.0296676666667,-0.0868476666667,-0.995779666667,18.3690905833,0.384430916667,-46.1277110833,1,0,0
2018-06-11 19:55:09.094709,-5.4923076923076913e-05,0.00036092307692307693,-0.0013179230769230768,0.0297665384615,0.0868464615385,-0.0579603846154,0.000481615384615,-0.000323538461538,-0.00113023076923,0.0296501538462,-0.0867373846154,-0.995789846154,18.3676372308,0.392380615385,-46.128222,1,0,0
2018-06-11 19:55:09.344709,0.00043724999999999998,-7.3166666666666679e-05,-0.0012539166666666666,0.0297136666667,0.0868943333333,-0.0582065,0.000101666666667,-0.000652416666667,-0.00153741666667,0.0295971666667,-0.0867850833333,-0.995787333333,18.3637035833,0.394678833333,-46.1297686667,1,0,0
2018-06-11 19:55:09.594709,-0.00024723076923076917,0.00032899999999999997,-0.0013622307692307694,0.0297369230769,0.0869346923077,-0.0584926923077,0.000442615384615,-9.77692307692e-05,-0.00122161538462,0.0296204615385,-0.0868253846154,-0.995783153846,18.3641469231,0.397277076923,-46.1295703846,1,0,0
2018-06-11 19:55:09.844709,0.00019425000000000001,0.00022166666666666659,-0.0014322500000000001,0.0295553333333,0.0869106666667,-0.0587461666667,0.000671416666667,3.61666666667e-05,-0.0010225,0.0294396666667,-0.08680125,-0.9957905,18.3540625,0.403046,-46.133534,1,0,0
2018-06-11 19:55:10.094709,0.00010807692307692307,0.0001446923076923077,-0.0017476153846153846,0.0295192307692,0.0868496153846,-0.0590308461538,0.000398307692308,4.84615384615e-05,-0.00106730769231,0.0294036923077,-0.0867404615385,-0.995797,18.3513605385,0.410671769231,-46.1345418462,1,0,0
2018-06-11 19:55:10.344709,-0.00033541666666666675,-2.1666666666667555e-06,-0.00147675,0.0295993333333,0.0868365833333,-0.05924025,0.000182,0.000553333333333,-0.00051825,0.0294834166667,-0.0867276666667,-0.995795666667,18.3542651667,0.414896083333,-46.133348,1,0,0
2018-06-11 19:55:10.594709,-0.00019046153846153849,0.00010261538461538465,-0.001906692307692308,0.0296513846154,0.0867731538462,-0.0594316923077,0.000520076923077,3.83076923077e-05,-0.000831153846154,0.0295353846154,-0.0866643076923,-0.995799615385,18.3558361538,0.421194,-46.1326662308,1,0,0
2018-06-11 19:55:10.844709,-0.00014674999999999999,0.00035433333333333329,-0.0012206666666666666,0.0296660833333,0.0866913333333,-0.0595990833333,0.000322416666667,0.00063375,-0.0005345,0.0295503333333,-0.0865829166667,-0.99580625,18.35560575,0.427630833333,-46.1326988333,1,0,0
2018-06-11 19:55:11.094709,7.2846153846153888e-05,0.00026246153846153851,-0.0015727692307692307,0.0296296153846,0.086677,-0.0597332307692,0.000236846153846,0.000194692307692,-0.000523307692308,0.029514,-0.0865686153846,-0.995808538462,18.3530488462,0.430532076923,-46.1336893077,1,0,0
2018-06-11 19:55:11.344709,2.9583333333333315e-05,-0.00036008333333333335,-0.0011284166666666667,0.0298171666667,0.08670325,-0.05989225,0.000468166666667,0.000627083333333,-0.00064225,0.02970075,-0.0865946666667,-0.995800666667,18.3611004167,0.432521833333,-46.1304665,1,0,0
2018-06-11 19:55:11.594709,-0.000156,-0.00017492307692307688,-0.0021340769230769234,0.0296968461538,0.0868189230769,-0.0600627692308,0.000778846153846,-0.000221384615385,-0.000692769230769,0.0295806923077,-0.0867099230769,-0.995794307692,18.3555546154,0.430186538462,-46.1326942308,1,0,0
2018-06-11 19:55:11.844709,-0.00051849999999999997,0.00012133333333333333,-0.00121225,0.0294805833333,0.0868328333333,-0.0602120833333,0.0004385,-0.000178666666667,-0.000746583333333,0.02936525,-0.08672375,-0.9957995,18.3450243333,0.431509,-46.13687075,1,0,0
2018-06-11 19:55:12.094709,0.00058546153846153839,0.00017369230769230767,-0.0016043076923076926,0.0295902307692,0.086893,-0.0603803076923,0.000265769230769,0.000177923076923,-0.000810923076923,0.0294743076923,-0.0867837692308,-0.995791153846,18.3480123846,0.431386538462,-46.1356844615,1,0,0
2018-06-11 19:55:12.344709,0.00012008333333333333,0.00054316666666666673,-0.0024015833333333337,0.0296283333333,0.0867585833333,-0.06052375,0.000327416666667,0.000253916666667,-0.000878916666667,0.0295123333333,-0.08664975,-0.9958015,18.3496528333,0.43960525,-46.13495375,1,0,0
2018-06-11 19:55:12.594709,2.3538461538461543e-05,-0.00012984615384615386,-0.0020523846153846152,0.0296353846154,0.0867379230769,-0.0607060769231,0.000152153846154,8.55384615385e-05,-0.000593923076923,0.0295196923077,-0.0866291538462,-0.995803153846,18.3496332308,0.444509384615,-46.1349143846,1,0,0
2018-06-11 19:55:12.844709,4.1583333333333359e-05,-0.00011058333333333332,-0.0016296666666666664,0.0297085833333,0.0868184166667,-0.0608953333333,0.00047975,0.000509583333333,-0.000920583333333,0.0295925,-0.0867094166667,-0.995794,18.351638,0.443909666667,-46.13412325,1,0,0
2018-06-11 19:55:13.094709,-7.2615384615384607e-05,-0.00027961538461538466,-0.0022679230769230767,0.0297933076923,0.0867762307692,-0.061045,0.000213615384615,0.000321153846154,-0.000875769230769,0.0296767692308,-0.0866673846154,-0.995795230769,18.3551080769,0.448401692308,-46.132699,1,0,0
2018-06-11 19:55:13.344709,-1.3166666666666679e-05,0.00038316666666666664,-0.0015250833333333334,0.0297059166667,0.0866988333333,-0.0611524166667,0.000532333333333,-0.000208166666667,-0.000505416666667,0.0295899166667,-0.08659025,-0.9958045,18.35067725,0.4533925,-46.1344128333,1,0,0
2018-06-11 19:55:13.594709,0.00021738461538461538,-1.5076923076923059e-05,-0.0010507692307692306,0.0296601538462,0.0866976923077,-0.0612394615385,0.000906846153846,-0.000179692307692,-0.000155076923077,0.0295442307692,-0.086589,-0.995806,18.3479762308,0.455547615385,-46.1354666154,1,0,0
2018-06-11 19:55:13.844709,-0.00040866666666666661,0.00023058333333333337,-0.00093216666666666665,0.0296959166667,0.0868124166667,-0.0613493333333,0.000864916666667,-0.00030575,-0.0006325,0.02957975,-0.0867034166667,-0.995794833333,18.3497221667,0.4517015,-46.1348095833,1,0,0
2018-06-11 19:55:14.094709,-0.00043776923076923083,-0.00018707692307692305,-0.0012530769230769232,0.0295978461538,0.0867122307692,-0.0614756923077,0.000815307692308,5.62307692308e-05,-0.000770923076923,0.0294823076923,-0.0866036153846,-0.995806384615,18.3444335385,0.458791615385,-46.1368431538,1,0,0
2018-06-11 19:55:14.344709,6.9749999999999974e-05,0.00016258333333333332,-0.0015419166666666665,0.0296914166667,0.08673525,-0.0616183333333,0.000576333333333,0.00021575,-0.000509666666667,0.0295753333333,-0.0866266666667,-0.99580175,18.34778425,0.4600105,-46.1354980833,1,0,0
2018-06-11 19:55:14.594709,-0.00010653846153846152,-5.415384615384617e-05,-0.0020308461538461535,0.0297699230769,0.0867407692308,-0.0617106153846,0.000374461538462,4.86923076923e-05,-0.000241,0.0296536153846,-0.0866323846154,-0.995799076923,18.3512764615,0.461515846154,-46.1340934615,1,0,0
2018-06-11 19:55:14.844709,-0.00033608333333333336,0.00025700000000000001,-0.0012326666666666668,0.0296549166667,0.0867725,-0.0617730833333,0.000371333333333,-0.00014525,-0.000376166666667,0.0295390833333,-0.08666375,-0.995799583333,18.3456623333,0.4604685,-46.1363368333,1,0,0
2018-06-11 19:55:15.094709,-4.6846153846153826e-05,4.6153846153847273e-07,-0.0015773076923076925,0.0296097692308,0.0868451538462,-0.0618888461538,0.000680153846154,-0.000120923076923,-0.000524307692308,0.0294938461538,-0.0867360769231,-0.995794615385,18.3425947692,0.459360769231,-46.1375679231,1,0,0
2018-06-11 19:55:15.344709,6.416666666666669e-06,-7.5666666666666699e-05,-0.0013812499999999999,0.0295933333333,0.0868955,-0.0620370833333,0.000791583333333,-0.000593416666667,-0.000770083333333,0.0294773333333,-0.0867863333333,-0.995790833333,18.3417969167,0.459645583333,-46.1378826667,1,0,0
2018-06-11 19:55:15.594709,-0.00031107692307692309,0.00019846153846153855,-0.001256769230769231,0.0292209230769,0.0868520769231,-0.0621465384615,0.000163923076923,-0.000127923076923,-0.000494538461538,0.0291068461538,-0.0867428461538,-0.995805461538,18.3238853846,0.463562769231,-46.1449590769,1,0,0
2018-06-11 19:55:15.844709,0.00022391666666666664,-0.00025324999999999995,-0.0010758333333333334,0.0293376666667,0.0868476666667,-0.0622118333333,-0.000126916666667,0.0007265,-0.000143166666667,0.0292229166667,-0.0867384166667,-0.995802416667,18.32855975,0.46459125,-46.1430930833,1,0,0
2018-06-11 19:55:16.094709,-6.3307692307692303e-05,-0.00029684615384615394,-0.0019216923076923078,0.0294675384615,0.0869263846154,-0.0622593076923,0.000294076923077,0.000519615384615,-0.000139692307692,0.0293518461538,-0.0868168461538,-0.995791846154,18.3345526923,0.462143538462,-46.1407364615,1,0,0
2018-06-11 19:55:16.344709,-0.00012925000000000002,0.00017233333333333334,-0.0013008333333333335,0.0295745,0.0867371666667,-0.06226775,-7.15e-05,0.000191916666667,7.525e-05,0.0294591666667,-0.0866285833333,-0.995805,18.3396109167,0.470526,-46.13864175,1,0,0
2018-06-11 19:55:16.594709,-0.00015999999999999996,-0.00010592307692307695,-0.0017346153846153844,0.029664,0.0867042307692,-0.0622775384615,0.000103307692308,0.000191230769231,-0.000187307692308,0.0295482307692,-0.0865956153846,-0.995805307692,18.3438473846,0.472623461538,-46.1369373846,1,0,0
2018-06-11 19:55:16.844709,-0.00017699999999999999,0.00014883333333333331,-0.0015219999999999999,0.029657,0.0867075,-0.0622968333333,0.000432166666667,1.225e-05,2.68333333333e-05,0.02954125,-0.08659875,-0.995805083333,18.3435083333,0.472721416667,-46.1370699167,1,0,0
2018-06-11 19:55:17.094709,-8.1384615384615382e-05,0.00015415384615384615,-0.0011686923076923079,0.0296856153846,0.0867368461538,-0.0623768461538,0.000492307692308,0.000269384615385,-0.000482307692308,0.0295696923077,-0.0866281538462,-0.995801846154,18.344199,0.472630230769,-46.1367962308,1,0,0
2018-06-11 19:55:17.344709,-0.00049775000000000004,9.1249999999999982e-05,-0.0012233333333333334,0.0295576666667,0.08665475,-0.0624466666667,0.000242166666667,-0.000168833333333,-0.00048025,0.02944225,-0.0865463333333,-0.99581275,18.3384933333,0.47757625,-46.1390139167,1,0,0
2018-06-11 19:55:17.594709,-0.00025192307692307688,-7.892307692307692e-05,-0.0016216923076923077,0.0294206923077,0.0867184615385,-0.0624853076923,0.000461153846154,1.77692307692e-05,-4.31538461538e-05,0.0293059230769,-0.0866096923077,-0.995811076923,18.3319987692,0.475754846154,-46.1416133077,1,0,0
2018-06-11 19:55:17.844709,0.00043766666666666666,0.00061649999999999997,-0.0016395833333333334,0.0293626666667,0.0866815833333,-0.0625279166667,0.000390416666667,8.98333333333e-05,-1.49166666667e-05,0.0292483333333,-0.0865731666667,-0.995815916667,18.3280318333,0.477186333333,-46.1431731667,1,0,0
2018-06-11 19:55:18.094709,0.00019869230769230768,-7.2384615384615421e-05,-0.0012224615384615384,0.0294333846154,0.0866034615385,-0.0625991538462,0.000202538461538,1.27692307692e-05,-0.000354076923077,0.0293189230769,-0.0864953076923,-0.995820769231,18.3314717692,0.482690615385,-46.1417509231,1,0,0
2018-06-11 19:55:18.344709,-0.00014799999999999999,0.00025591666666666677,-0.0013325833333333332,0.0294426666667,0.086649,-0.0625784166667,0.00019175,-4.08333333333e-06,9.34166666667e-05,0.0293278333333,-0.08654075,-0.995816416667,18.3323109167,0.479946833333,-46.1414456667,1,0,0
2018-06-11 19:55:18.594709,-0.00034269230769230769,0.00010438461538461537,-0.0011743076923076924,0.0295353846154,0.0867422307692,-0.062577,-6.73846153846e-05,0.000252769230769,6.83076923077e-05,0.02942,-0.0866333846154,-0.995805769231,18.3365950769,0.475914692308,-46.1397849231,1,0,0
2018-06-11 19:55:18.844709,0.00018900000000000001,-0.00027033333333333331,-0.0015770000000000001,0.0294595,0.0867196666667,-0.06256475,0.000259666666667,-0.000451333333333,0.000119166666667,0.0293444166667,-0.0866109166667,-0.99581,18.3330026667,0.476854583333,-46.1412021667,1,0,0
2018-06-11 19:55:19.094709,0.00046192307692307689,-0.00044599999999999994,-0.00070576923076923074,0.0295594615385,0.0866656923077,-0.062579,0.000154615384615,0.000166076923077,0.000253615384615,0.0294443076923,-0.0865570769231,-0.995811538462,18.3365023077,0.480139076923,-46.1397775385,1,0,0
2018-06-11 19:55:19.344709,-9.8333333333333356e-05,-0.00022691666666666661,-0.00089566666666666668,0.0295936666667,0.08678075,-0.0625538333333,0.000155666666667,-0.000190083333333,4.075e-05,0.0294779166667,-0.0866718333333,-0.995800666667,18.3391724167,0.4737605,-46.138783,1,0,0
2018-06-11 19:55:19.594709,-0.00037561538461538456,-0.00042215384615384614,-0.0014900769230769234,0.0294635384615,0.0867827692308,-0.0624966923077,0.000217846153846,-0.000410538461538,0.000276923076923,0.0293482307692,-0.0866737692308,-0.995804384615,18.3339702308,0.473076153846,-46.1408570769,1,0,0
2018-06-11 19:55:19.844709,0.0005043333333333333,0.00044341666666666667,-0.0010450833333333334,0.02945025,0.0866585833333,-0.0624931666667,-0.000126666666667,-0.000105833333333,0.000137166666667,0.0293353333333,-0.0865499166667,-0.9958155,18.33239525,0.47794,-46.1414328333,1,0,0
2018-06-11 19:55:20.094709,0.0001325,-0.00042624999999999993,-0.00105575,0.0294514166667,0.0864428333333,-0.06250725,-0.000132333333333,-0.000284083333333,5.44166666667e-05,0.0293371666667,-0.08633525,-0.995834,18.3330630833,0.488763416667,-46.1410545,1,0,0
2018-06-11 19:55:20.344709,-0.00014053846153846153,-0.00050392307692307694,-0.001337076923076923,0.0294,0.0864343076923,-0.0625388461538,0.000201230769231,-0.000333,-3.94615384615e-05,0.0292857692308,-0.0863267692308,-0.995836384615,18.3307197692,0.490072,-46.1419707692,1,0,0
2018-06-11 19:55:20.594709,0.00012591666666666673,-0.00043274999999999997,-0.0014419166666666667,0.0292754166667,0.0864249166667,-0.062538,-0.00032225,-0.000285666666667,5.8e-05,0.0291621666667,-0.0863171666667,-0.99584075,18.3246080833,0.490241333333,-46.1443964167,1,0,0
2018-06-11 19:55:20.844709,0.00028223076923076921,-0.0001049230769230769,-0.0013638461538461539,0.0293233076923,0.0865239230769,-0.0625631538462,-0.000132923076923,-0.000332846153846,-0.000204076923077,0.0292093076923,-0.0864159230769,-0.995830769231,18.3264587692,0.486068076923,-46.143707,1,0,0
2018-06-11 19:55:21.094709,0.00081233333333333331,-0.00018949999999999997,-0.0016280000000000001,0.0294076666667,0.0866061666667,-0.06255025,0.000107416666667,0.0005115,0.00023275,0.02929325,-0.0864981666667,-0.995821333333,18.3296810833,0.481909,-46.142471,1,0,0
2018-06-11 19:55:21.344709,-0.00032230769230769227,-9.0384615384615384e-05,-0.0012336923076923076,0.0294063076923,0.0866596923077,-0.0625958461538,-0.000224923076923,-0.000248384615385,-0.000122307692308,0.0292916923077,-0.0865513076923,-0.995816692308,18.3309629231,0.479978769231,-46.141981,1,0,0
2018-06-11 19:55:21.594709,-0.00020233333333333336,-0.00018341666666666666,-0.001093,0.0293769166667,0.08656175,-0.0626321666667,-0.00016725,-0.000545833333333,0.000157416666667,0.0292626666667,-0.0864536666667,-0.995826,18.3292265833,0.485173583333,-46.1426175833,1,0,0
2018-06-11 19:55:21.844709,0.00019384615384615382,-0.00033299999999999996,-0.0013580769230769234,0.0293580769231,0.0866093846154,-0.0626816923077,9.80769230769e-05,-0.000162,-0.000282615384615,0.0292438461538,-0.086501,-0.995822307692,18.3274076923,0.484120384615,-46.1433503846,1,0,0
2018-06-11 19:55:22.094709,0.00017158333333333335,-0.00026166666666666661,-0.0012572499999999999,0.0293870833333,0.0865913333333,-0.0627455833333,-7.79166666667e-05,-0.000274833333333,-0.0001115,0.0292726666667,-0.0864831666667,-0.995823166667,18.32838475,0.48568825,-46.1429465833,1,0,0
2018-06-11 19:55:22.344709,0.00047076923076923066,0.00023961538461538461,-0.0017128461538461538,0.0293630769231,0.0866221538462,-0.0627910769231,8.70769230769e-05,0.000169615384615,0.000124076923077,0.0292484615385,-0.0865139230769,-0.995821307692,18.3273232308,0.484928153846,-46.1433755385,1,0,0
2018-06-11 19:55:22.594709,0.00038083333333333328,-0.00084499999999999994,-0.00076783333333333337,0.0294169166667,0.0865523333333,-0.06283575,-0.000257,0.000262083333333,-3.18333333333e-05,0.0293025833333,-0.0864444166667,-0.99582575,18.3299865,0.489239416667,-46.142272,1,0,0
2018-06-11 19:55:22.844709,0.00028238461538461539,-0.00037369230769230763,-0.0017920769230769229,0.0295191538462,0.0866037692308,-0.0628343846154,0.000250692307692,0.000421384615385,4.13076923077e-05,0.0294043846154,-0.0864955384615,-0.995818153846,18.3336875385,0.486820769231,-46.1408257692,1,0,0
2018-06-11 19:55:23.094709,0.00010958333333333332,-0.00051175000000000005,-0.0016468333333333335,0.029614,0.0865625833333,-0.06284275,3.83333333333e-06,3.16666666667e-06,6.56666666667e-05,0.0294989166667,-0.0864545833333,-0.995818916667,18.3387795833,0.4890175,-46.138779,1,0,0
2018-06-11 19:55:23.344709,5.3846153846152648e-07,0.00012461538461538464,-0.0018859999999999999,0.0296430769231,0.0866564615385,-0.0628706923077,8.73846153846e-05,0.000510230769231,3.90769230769e-05,0.0295276153846,-0.0865481538462,-0.99581,18.3398199231,0.484599076923,-46.1384124615,1,0,0
2018-06-11 19:55:23.594709,0.0004035,-0.00015358333333333326,-0.0018616666666666669,0.0297678333333,0.0864204166667,-0.062885,-0.000700666666667,0.000629416666667,4.84166666667e-05,0.0296524166667,-0.0863130833333,-0.995826583333,18.344977,0.495528166667,-46.1362465,1,0,0
2018-06-11 19:55:23.844709,-7.6692307692307699e-05,-0.00013192307692307695,-0.0014513076923076923,0.0299733076923,0.0863751538462,-0.0628915384615,-3.84615384615e-06,-0.000220615384615,0.000378461538462,0.0298572307692,-0.0862677692308,-0.995824692308,18.3553932308,0.498321461538,-46.1320738462,1,0,0
2018-06-11 19:55:24.094709,1.9666666666666649e-05,-0.00049883333333333333,-0.0010492500000000001,0.02987625,0.08643,-0.062889,8.99166666667e-05,-0.000342416666667,7.375e-05,0.0297604166667,-0.0863224166667,-0.99582275,18.3505655,0.4962015,-46.1340175833,1,0,0
2018-06-11 19:55:24.344709,-0.00022384615384615376,1.1538461538461318e-06,-0.0010736923076923078,0.0295955384615,0.0864546923077,-0.0628813846154,-0.000152307692308,-0.000138692307692,-0.000363769230769,0.0294807692308,-0.0863470769231,-0.995828769231,18.3383871538,0.494357846154,-46.1388783846,1,0,0
2018-06-11 19:55:24.594709,0.00050883333333333325,7.0666666666666699e-05,-0.0019626666666666668,0.0293365,0.08642725,-0.0629149166667,-8.44166666667e-05,-0.000345583333333,-1.75e-05,0.0292228333333,-0.08631975,-0.99583875,18.32577175,0.496171333333,-46.14387225,1,0,0
2018-06-11 19:55:24.844709,0.00013084615384615386,-0.00060976923076923068,-0.0012893846153846154,0.0293216153846,0.0863552307692,-0.0629389230769,-0.000314538461538,2.04615384615e-05,-0.000286769230769,0.0292080769231,-0.0862478461538,-0.995845538462,18.3249188462,0.499694923077,-46.1441726923,1,0,0
2018-06-11 19:55:25.094709,-4.4083333333333366e-05,-0.00072591666666666649,-0.0017016666666666666,0.029344,0.08637675,-0.06300125,0.000375416666667,-0.00132216666667,-0.000978166666667,0.0292304166667,-0.0862693333333,-0.995843,18.32611025,0.500538833333,-46.1436899167,1,0,0
2018-06-11 19:55:25.344709,-0.00028838461538461537,-0.00032330769230769229,-0.0014743076923076919,0.0291376923077,0.0866404615385,-0.0631256923077,-0.000395230769231,0.000181461538462,-0.000127384615385,0.0290242307692,-0.0865320769231,-0.995826230769,18.3159192308,0.489768769231,-46.1478519231,1,0,0
2018-06-11 19:55:25.594709,2.9166666666666471e-06,2.9000000000000054e-05,-0.00092683333333333333,0.02910725,0.0866738333333,-0.0631173333333,0.00018225,2.33333333333e-06,0.00024525,0.0289939166667,-0.0865655,-0.995824166667,18.31416075,0.488184333333,-46.1485668333,1,0,0
2018-06-11 19:55:25.844709,0.00010576923076923073,0.00016461538461538458,-0.0013718461538461538,0.0292027692308,0.0866013076923,-0.0631236923077,0.000181384615385,0.000261615384615,-0.000285692307692,0.0290891538462,-0.0864930769231,-0.995827461538,18.3183443077,0.491569384615,-46.1468705385,1,0,0
2018-06-11 19:55:26.094709,0.00017483333333333329,2.6250000000000004e-05,-0.0016789999999999999,0.0292446666667,0.0865919166667,-0.0631909166667,0.000105083333333,0.00026975,-0.000113416666667,0.029131,-0.0864836666667,-0.99582725,18.32009075,0.49306525,-46.14616025,1,0,0
2018-06-11 19:55:26.344709,-0.00044030769230769232,-0.00011184615384615383,-0.0015193846153846154,0.0293050769231,0.0865371538462,-0.0631677692308,-0.000641615384615,0.000101692307692,0.000285692307692,0.0291913076923,-0.0864290769231,-0.995830230769,18.3232363846,0.495280461538,-46.1448876923,1,0,0
2018-06-11 19:55:26.594709,0.00068583333333333333,0.000164,-0.0012750833333333331,0.02921775,0.08645575,-0.06316,9.75e-06,0.000273333333333,0.000424583333333,0.0291044166667,-0.0863480833333,-0.99583975,18.3187548333,0.498871083333,-46.1466296667,1,0,0
2018-06-11 19:55:26.844709,6.7076923076923119e-05,-0.00012584615384615388,-0.00082884615384615386,0.029373,0.0864415384615,-0.0631535384615,0.000178307692308,-5.76923076923e-05,0.000140076923077,0.0292590769231,-0.0863339230769,-0.995836538462,18.3260726923,0.499560461538,-46.1437153846,1,0,0
2018-06-11 19:55:27.094709,0.00015850000000000009,-0.00023449999999999998,-0.0019780000000000002,0.0294691666667,0.0865460833333,-0.0631746666667,-0.000163,-0.000341416666667,0.0002595,0.02935475,-0.0864380833333,-0.995824666667,18.3306856667,0.495250583333,-46.1419306667,1,0,0
2018-06-11 19:55:27.344709,-0.00030192307692307712,-0.00046084615384615381,-0.0010944615384615385,0.0293066923077,0.0866166153846,-0.0631818461538,0.000347,-0.000627384615385,-9.04615384615e-05,0.0291926923077,-0.0865084615385,-0.995823307692,18.323611,0.492426769231,-46.1447697692,1,0,0
2018-06-11 19:55:27.594709,1.2333333333333317e-05,0.00015891666666666669,-0.0013466666666666668,0.0292230833333,0.0866934166667,-0.06321675,0.000384833333333,0.000100166666667,-0.000448833333333,0.0291091666667,-0.08658475,-0.995819083333,18.3191050833,0.488858166667,-46.1465968333,1,0,0
2018-06-11 19:55:27.844709,0.0001710769230769231,1.8307692307692327e-05,-0.0016327692307692304,0.0292110769231,0.0866156153846,-0.0632167692308,-0.000464384615385,2.48461538462e-05,-2.63846153846e-05,0.0290973846154,-0.0865074615385,-0.995826076923,18.318418,0.492207307692,-46.1468338462,1,0,0
2018-06-11 19:55:28.094709,-0.00013650000000000004,1.2500000000000236e-06,-0.00098358333333333327,0.0292238333333,0.0865541666667,-0.0632579166667,0.000206666666667,-0.0005205,-0.00035225,0.02911025,-0.0864460833333,-0.995831166667,18.3190005833,0.49619925,-46.1465603333,1,0,0
2018-06-11 19:55:28.344709,0.00030315384615384617,-0.00013461538461538456,-0.0012755384615384614,0.0291396923077,0.0865281538462,-0.0632399230769,-0.000135461538462,2.45384615385e-05,-0.000104692307692,0.0290266153846,-0.0864202307692,-0.995835692308,18.3149053077,0.496990230769,-46.1481767692,1,0,0
2018-06-11 19:55:28.594709,9.7083333333333285e-05,-1.3166666666666706e-05,-0.0013838333333333335,0.0291005833333,0.0865768333333,-0.0632418333333,-0.000416166666667,-0.000784583333333,-8.925e-05,0.0289875,-0.0864686666667,-0.995832666667,18.31361175,0.494630833333,-46.1487155833,1,0,0
2018-06-11 19:55:28.844709,0.00034600000000000001,-2.5153846153846136e-05,-0.0011473846153846152,0.0290460769231,0.0864743846154,-0.0632474615385,-0.000139230769231,-0.000300461538462,6.51538461538e-05,0.0289333076923,-0.0863665384615,-0.995843230769,18.3106271538,0.499844461538,-46.1498430769,1,0,0
2018-06-11 19:55:29.094709,6.3833333333333344e-05,-0.00036500000000000004,-0.0011050833333333334,0.0290993333333,0.0865605833333,-0.0632423333333,-5.78333333333e-05,0.000103,-0.000185,0.0289863333333,-0.0864524166667,-0.99583425,18.3134203333,0.495898,-46.1487785,1,0,0
2018-06-11 19:55:29.344709,-4.9230769230769246e-05,-0.00018023076923076931,-0.0015603076923076922,0.0291426153846,0.0866025384615,-0.0632167692308,-0.000382692307692,3.03846153846e-05,0.000141846153846,0.0290294615385,-0.0864943076923,-0.995829307692,18.3153107692,0.492786615385,-46.1480619231,1,0,0
2018-06-11 19:55:29.594709,0.00013449999999999999,-0.00074241666666666672,-0.0014141666666666667,0.0292355,0.086603,-0.0631553333333,-0.000323416666667,0.000285916666667,-1e-05,0.02912175,-0.0864945833333,-0.9958265,18.31990225,0.492675333333,-46.14623975,1,0,0
2018-06-11 19:55:29.844709,-0.00021446153846153842,-0.00039769230769230761,-0.001185076923076923,0.0292790769231,0.0866564615385,-0.0631279230769,0.000353692307692,0.000117769230769,0.000153461538462,0.029165,-0.0865482307692,-0.995820615385,18.3221489231,0.489468076923,-46.1453819231,1,0,0
2018-06-11 19:55:30.094709,8.8666666666666649e-05,-0.0001051666666666667,-0.0015855000000000001,0.0293620833333,0.0866145,-0.06313975,-0.00040525,-6.05833333333e-05,-0.000180416666667,0.0292476666667,-0.08650625,-0.995821916667,18.325968,0.491493333333,-46.14384375,1,0,0
2018-06-11 19:55:30.344709,-0.00028630769230769221,-0.00037061538461538455,-0.002076769230769231,0.0292969230769,0.0866306153846,-0.0631525384615,-0.000288692307692,4.41538461538e-05,-9.69230769231e-05,0.0291827692308,-0.0865224615385,-0.995822461538,18.3231066923,0.490927923077,-46.1449854615,1,0,0
2018-06-11 19:55:30.594709,0.00022675000000000004,4.916666666666669e-06,-0.00076224999999999991,0.0292605,0.08667525,-0.063088,2.99166666667e-05,0.000209583333333,0.00044725,0.0291463333333,-0.0865668333333,-0.99581975,18.3208248333,0.487771916667,-46.1459248333,1,0,0
2018-06-11 19:55:30.844709,-0.00028299999999999994,0.00026499999999999999,-0.0011569999999999998,0.0293549230769,0.0866572307692,-0.0631470769231,-0.000276076923077,-0.000194538461538,-0.000501846153846,0.0292405384615,-0.0865486153846,-0.995818461538,18.3256639231,0.489073153846,-46.1439910769,1,0,0
2018-06-11 19:55:31.094709,7.3166666666666638e-05,-0.00014549999999999996,-0.0011807499999999999,0.0293951666667,0.08657025,-0.06317775,-0.00031175,3.86666666667e-05,9.10833333333e-05,0.029281,-0.0864620833333,-0.995824833333,18.3269658333,0.49387125,-46.1434220833,1,0,0
2018-06-11 19:55:31.344709,0.00021730769230769232,-0.00051546153846153842,-0.0012836153846153846,0.0294606923077,0.086635,-0.0631833076923,-0.000282307692308,5.39230769231e-05,0.000153692307692,0.0293459230769,-0.0865266153846,-0.995817307692,18.3301646923,0.491348230769,-46.1421793077,1,0,0
2018-06-11 19:55:31.594709,0.00022775000000000006,-0.00021083333333333335,-0.0016761666666666667,0.0294599166667,0.0866896666667,-0.0631821666667,4.91666666667e-05,0.000394083333333,9.16666666667e-05,0.029345,-0.0865813333333,-0.995812583333,18.3298855833,0.488702833333,-46.1423176667,1,0,0
2018-06-11 19:55:31.844709,-3.8666666666666674e-05,-0.00027466666666666666,-0.00051999999999999995,0.0294809166667,0.0866805,-0.063199,0.00022875,-0.000225416666667,1.46666666667e-05,0.0293660833333,-0.0865719166667,-0.99581275,18.3310931667,0.489574583333,-46.1418284167,1,0,0
2018-06-11 19:55:32.094709,-0.00018969230769230771,0.00020853846153846145,-0.0013903846153846158,0.0293756923077,0.0867040769231,-0.0632034615385,0.000296538461538,5.30769230769e-05,0.000244846153846,0.0292612307692,-0.0865955384615,-0.995813615385,18.3264203077,0.488080846154,-46.1437003077,1,0,0
2018-06-11 19:55:32.344709,0.00049058333333333343,-0.00028958333333333332,-0.00092958333333333315,0.0294210833333,0.0868049166667,-0.0632463333333,-0.000283333333333,-0.00013625,-0.000437333333333,0.0293061666667,-0.0866958333333,-0.995803916667,18.3277083333,0.484350833333,-46.1432288333,1,0,0
2018-06-11 19:55:32.594709,-0.00031830769230769233,0.00049384615384615385,-0.0006005384615384616,0.0295213076923,0.0867101538462,-0.0633087692308,0.000150769230769,-0.000110307692308,-0.000247307692308,0.0294063076923,-0.0866014615385,-0.995808923077,18.3328533846,0.489175769231,-46.1411332308,1,0,0
2018-06-11 19:55:32.844709,-7.4666666666666675e-05,7.8833333333333343e-05,-0.0014768333333333333,0.0292945,0.0865146666667,-0.0633006666667,-0.000457,-0.00013825,-0.00026175,0.0291809166667,-0.0864068333333,-0.9958325,18.3224160833,0.498281833333,-46.1451815,1,0,0
2018-06-11 19:55:33.094709,3.1461538461538476e-05,-2.6923076923076842e-05,-0.0008163846153846153,0.0292554615385,0.0864183846154,-0.0633495384615,-1.09230769231e-05,-0.000357538461538,-8.16923076923e-05,0.0291422307692,-0.0863109230769,-0.995842076923,18.3198237692,0.503943538462,-46.1461490769,1,0,0
2018-06-11 19:55:33.344709,0.00022008333333333331,2.050000000000001e-05,-0.0010260833333333333,0.02922325,0.08647275,-0.063343,0.000247,0.0004785,0.000183416666667,0.0291099166667,-0.0863648333333,-0.995838166667,18.3183145,0.501469916667,-46.1467759167,1,0,0
2018-06-11 19:55:33.594709,0.00023261538461538469,-0.00014399999999999998,-0.001152076923076923,0.0294264615385,0.0866318461538,-0.0633733846154,7.63076923077e-05,0.000295692307692,-6.92307692308e-06,0.0293119230769,-0.0865235384615,-0.995818538462,18.3272343846,0.494634,-46.1433080769,1,0,0
2018-06-11 19:55:33.844709,-0.00012625000000000001,-0.00012216666666666666,-0.0012890833333333335,0.0295710833333,0.086572,-0.0634168333333,-0.000185083333333,0.0001265,-8.18333333333e-05,0.0294560833333,-0.086464,-0.995819416667,18.33415175,0.497642583333,-46.1405270833,1,0,0
2018-06-11 19:55:34.094709,-0.00044746153846153856,-0.0005373076923076924,-0.0015003076923076923,0.0294799230769,0.086528,-0.0634140769231,-7.76923076923e-05,-0.000274846153846,-0.000326,0.0293653076923,-0.0864200769231,-0.995825846154,18.3300163846,0.500349230769,-46.1421407692,1,0,0
2018-06-11 19:55:34.344709,-0.00037183333333333339,0.00014583333333333335,-0.0012335833333333333,0.0294079166667,0.08660475,-0.0633586666667,-9.89166666667e-05,-5.06666666667e-05,0.000192166666667,0.0292935833333,-0.0864966666667,-0.9958215,18.3274251667,0.495432416667,-46.1432230833,1,0,0
2018-06-11 19:55:34.594709,3.4923076923076914e-05,-0.00053676923076923064,-0.0008304615384615386,0.0293633076923,0.0866539230769,-0.0633613846154,0.000491076923077,0.000214,5.30769230769e-06,0.0292490769231,-0.0865452307692,-0.995818461538,18.3247713077,0.494001230769,-46.144292,1,0,0
2018-06-11 19:55:34.844709,-0.00066116666666666667,-7.5833333333333338e-05,-0.00086441666666666665,0.0293564166667,0.0866760833333,-0.0633965833333,-5.08333333333e-06,-0.000228416666667,2.05833333333e-05,0.0292421666667,-0.0865675,-0.995816833333,18.32518,0.4927915,-46.1441431667,1,0,0
2018-06-11 19:55:35.094709,0.00013999999999999999,0.00055576923076923078,-0.0013599999999999999,0.0292614615385,0.0866910769231,-0.0634226923077,0.000338461538462,0.000213461538462,-0.000404615384615,0.0291475384615,-0.0865826153846,-0.995818230769,18.3198256154,0.491849461538,-46.1462780769,1,0,0
2018-06-11 19:55:35.344709,5.0000000000000038e-06,-0.00036899999999999997,-0.0014619166666666667,0.0291495833333,0.0865963333333,-0.0634674166667,-6.25e-06,-5.30833333333e-05,0.000199083333333,0.0290363333333,-0.086488,-0.99582975,18.3147363333,0.498005583333,-46.1482324167,1,0,0
2018-06-11 19:55:35.594709,0.00011892307692307693,-0.00068169230769230785,-0.001140846153846154,0.0291850769231,0.086759,-0.0634505384615,0.000256076923077,-0.000115384615385,-0.000316307692308,0.029071,-0.0866503846154,-0.995814615385,18.3163490769,0.490583,-46.1476718462,1,0,0
2018-06-11 19:55:35.844709,0.00025116666666666674,0.00029191666666666662,-0.0010234166666666666,0.0292715833333,0.0866903333333,-0.0635088333333,9.75833333333e-05,3.31666666667e-05,-0.000511333333333,0.0291574166667,-0.0865816666667,-0.995818,18.3198571667,0.493634,-46.1462464167,1,0,0
2018-06-11 19:55:36.094709,0.0003236153846153846,0.00018946153846153849,-0.0011421538461538461,0.0294413076923,0.0866344615385,-0.0635602307692,0.000494615384615,0.000207923076923,1.29230769231e-05,0.0293267692308,-0.0865259230769,-0.995817846154,18.327159,0.497418923077,-46.1433076923,1,0,0
2018-06-11 19:55:36.344709,-0.00027900000000000001,-0.00036108333333333332,-0.0014616666666666665,0.0293686666667,0.0866666666667,-0.0635235,-0.000276083333333,2.99166666667e-05,0.000466333333333,0.0292540833333,-0.0865581666667,-0.99581725,18.3246434167,0.495682333333,-46.1443248333,1,0,0
2018-06-11 19:55:36.594709,-0.00029430769230769235,-2.584615384615384e-05,-0.0012587692307692304,0.0294146923077,0.0866621538462,-0.0635625384615,0.000244615384615,0.000288923076923,0.000176846153846,0.0293,-0.0865537692308,-0.995816307692,18.3267054615,0.496442153846,-46.1434983846,1,0,0
2018-06-11 19:55:36.844709,-0.00031933333333333331,-6.3583333333333284e-05,-0.00051133333333333337,0.0293381666667,0.0868324166667,-0.0635271666667,-1e-06,3.09166666667e-05,-0.00023725,0.0292233333333,-0.0867235,-0.995803833333,18.3231964167,0.487667,-46.14498425,1,0,0
2018-06-11 19:55:37.094709,0.00040115384615384617,-0.00042492307692307697,-0.00087838461538461529,0.0295326153846,0.0868931538462,-0.0635333846154,0.000161307692308,-3.73846153846e-05,2.19230769231e-05,0.029417,-0.0867838461538,-0.995792846154,18.3314574615,0.485551769231,-46.1417256923,1,0,0
2018-06-11 19:55:37.344709,-0.00037675000000000008,-0.00028374999999999999,-0.0011245000000000001,0.0295605833333,0.08687825,-0.0635433333333,8.05e-05,3.05833333333e-05,-0.000142333333333,0.0294446666667,-0.086769,-0.995793166667,18.3334905833,0.48598925,-46.1409126667,1,0,0
2018-06-11 19:55:37.594709,-0.00069376923076923066,0.00024338461538461539,-0.0017342307692307692,0.0295192307692,0.0867497692308,-0.0635879230769,-0.000246923076923,0.000451384615385,-0.000151230769231,0.0294038461538,-0.086641,-0.995805692308,18.3315737692,0.492421230769,-46.1416076923,1,0,0
2018-06-11 19:55:37.844709,0.00029483333333333336,-0.00042458333333333329,-0.0013017500000000002,0.02939675,0.0867789166667,-0.063611,0.00025425,-0.000239083333333,-0.000311416666667,0.029282,-0.08667,-0.995806666667,18.3250599167,0.491722916667,-46.1442014167,1,0,0
2018-06-11 19:55:38.094709,-0.00040946153846153845,-0.00017569230769230769,-0.0011416153846153846,0.029361,0.0868463846154,-0.0636416923077,-0.000169538461538,0.000610230769231,-0.000150769230769,0.0292461538462,-0.0867373846154,-0.995801846154,18.3238363077,0.488938153846,-46.1447168462,1,0,0
2018-06-11 19:55:38.344709,-0.00031441666666666667,0.00060674999999999998,-0.00096049999999999998,0.0293913333333,0.08668575,-0.06365975,0.000337,0.0001105,-0.00022475,0.0292769166667,-0.0865771666667,-0.995814833333,18.3251645833,0.496836583333,-46.1441055833,1,0,0
2018-06-11 19:55:38.594709,-0.00033507692307692307,-0.00010800000000000001,-0.0011546923076923077,0.0293434615385,0.0866785384615,-0.063653,0.000224923076923,0.000195461538462,0.000191692307692,0.0292290769231,-0.0865700769231,-0.995816923077,18.3232721538,0.497111923077,-46.1448538462,1,0,0
2018-06-11 19:55:38.844709,0.00043958333333333333,-0.00057558333333333344,-0.00098691666666666654,0.029311,0.0867255,-0.0636444166667,-0.00028775,0.0001935,-5.30833333333e-05,0.02919675,-0.0866169166667,-0.995813833333,18.32068975,0.494981583333,-46.1459025833,1,0,0
2018-06-11 19:55:39.094709,9.5076923076923054e-05,4.6153846153843938e-07,-0.0010863846153846156,0.0293503076923,0.0866860769231,-0.0636620769231,-0.000174846153846,0.000108692307692,-0.000384,0.0292358461538,-0.0865777692308,-0.995816076923,18.3230644615,0.496696076923,-46.1449414615,1,0,0
2018-06-11 19:55:39.344709,-1.5000000000000007e-05,0.00032424999999999994,-0.00123325,0.0292744166667,0.086586,-0.0636075,-0.00021,0.000362833333333,0.000305916666667,0.0291605833333,-0.0864779166667,-0.995826833333,18.3197051667,0.500103833333,-46.1462379167,1,0,0
2018-06-11 19:55:39.594709,-0.00034884615384615385,-0.00043953846153846159,-0.00094884615384615407,0.0291039230769,0.0866039230769,-0.0635662307692,5.48461538462e-05,-0.000145076923077,0.000120692307692,0.0289907692308,-0.0864957692308,-0.995830384615,18.3124250769,0.499569,-46.1491339231,1,0,0
2018-06-11 19:55:39.844709,0.00032424999999999999,0.00031849999999999999,-0.0013600000000000001,0.02925725,0.0867040833333,-0.0636125,0.000237833333333,0.000267,-0.000216333333333,0.0291428333333,-0.0865954166667,-0.995817333333,18.3182134167,0.494762916667,-46.1468878333,1,0,0
2018-06-11 19:55:40.094709,0.00013430769230769231,7.0230769230769248e-05,-0.0013533076923076923,0.0294683076923,0.0865417692308,-0.0636647692308,0.000379615384615,1.10769230769e-05,4.49230769231e-05,0.0293538461538,-0.0864337692308,-0.995825,18.3279922308,0.503105384615,-46.1429152308,1,0,0
2018-06-11 19:55:40.344709,2.9416666666666686e-05,-0.00045641666666666666,-0.0012474999999999999,0.0293971666667,0.0865913333333,-0.0636739166667,0.0004015,-0.000272583333333,0.000243666666667,0.0292829166667,-0.0864831666667,-0.995822916667,18.325115,0.502141666667,-46.1440681667,1,0,0
2018-06-11 19:55:40.594709,8.0769230769230651e-06,-0.00049861538461538468,-0.00094099999999999989,0.0294104615385,0.0866669230769,-0.0636448461538,-0.000105692307692,-7.77692307692e-05,-0.000202461538462,0.0292958461538,-0.0865585384615,-0.995816,18.3258898462,0.497652923077,-46.1438089231,1,0,0
2018-06-11 19:55:40.844709,0.00023033333333333334,-0.00016058333333333338,-0.0010448333333333334,0.0294636666667,0.0866075833333,-0.06362275,4.16666666667e-05,-0.00028,0.00051,0.0293488333333,-0.0864993333333,-0.995819583333,18.3284388333,0.499890166667,-46.1427729167,1,0,0
2018-06-11 19:55:41.094709,-0.00011023076923076929,-0.00027030769230769231,-0.0010482307692307692,0.0293713076923,0.0866984615385,-0.06358,4.42307692308e-05,-0.000413,0.000301076923077,0.0292567692308,-0.0865899230769,-0.995814230769,18.324696,0.495856461538,-46.1443013077,1,0,0
2018-06-11 19:55:41.344709,-0.00018658333333333333,0.00012508333333333341,-0.0015504166666666667,0.0291585,0.0867499166667,-0.0636075,-0.000132583333333,-0.000818083333333,0.000162166666667,0.0290448333333,-0.0866410833333,-0.995816166667,18.3149139167,0.492867,-46.1482175833,1,0,0
2018-06-11 19:55:41.594709,0.00070353846153846139,-0.00012361538461538461,-0.0013383846153846158,0.0289834615385,0.0868173846154,-0.0636453076923,0.000287923076923,-0.000910307692308,6.66153846154e-05,0.0288703076923,-0.0867084615385,-0.995815230769,18.3058233846,0.490702923077,-46.1518470769,1,0,0
2018-06-11 19:55:41.844709,5.3416666666666748e-05,-0.00016583333333333334,-0.0016513333333333334,0.0289190833333,0.0868931666667,-0.0636300833333,0.000217,-0.000115583333333,0.000245666666667,0.028806,-0.0867839166667,-0.995810666667,18.303744,0.4865925,-46.1527149167,1,0,0
2018-06-11 19:55:42.094709,0.00069761538461538453,9.2153846153846179e-05,-0.00079976923076923085,0.0292052307692,0.0868549230769,-0.0636500769231,0.000126615384615,0.000232,-3.56153846154e-05,0.0290908461538,-0.0867456153846,-0.995805692308,18.3148257692,0.488458,-46.1483006154,1,0,0
2018-06-11 19:55:42.344709,-0.00066216666666666681,0.00019291666666666668,-0.0014430833333333333,0.0291014166667,0.0868511666667,-0.0635978333333,0.000389083333333,0.000238416666667,0.0003295,0.0289875,-0.0867419166667,-0.995809,18.3123829167,0.4877505,-46.1492763333,1,0,0
2018-06-11 19:55:42.594709,4.2076923076923107e-05,0.00046723076923076921,-0.0010910769230769229,0.0291018461538,0.0867153846154,-0.0636034615385,0.000454461538462,0.000153769230769,-0.000362153846154,0.0289882307692,-0.0866067692308,-0.995820769231,18.3117197692,0.493984153846,-46.1494733846,1,0,0
2018-06-11 19:55:42.844709,9.4999999999999751e-06,-0.00011366666666666669,-0.0011274999999999998,0.0290216666667,0.0867565,-0.063597,-0.000142833333333,0.000245583333333,0.000229666666667,0.0289085,-0.0866479166667,-0.995819583333,18.30800525,0.492661,-46.1509609167,1,0,0
2018-06-11 19:55:43.094709,0.00061223076923076932,0.0001971538461538462,-0.0014436923076923077,0.0291290769231,0.0866987692308,-0.0636352307692,-0.000208307692308,-0.000328461538462,-0.000121,0.0290156923077,-0.0865902307692,-0.995821307692,18.3121903846,0.495336846154,-46.1492717692,1,0,0
2018-06-11 19:55:43.344709,0.00043283333333333325,0.00023199999999999997,-0.0011716666666666666,0.0292855833333,0.0865609166667,-0.0636735,0.000208916666667,0.000164916666667,-3.60833333333e-05,0.0291718333333,-0.086453,-0.99582875,18.3198485833,0.502876833333,-46.1461509167,1,0,0
2018-06-11 19:55:43.594709,0.00014041666666666665,-0.0006949166666666666,-0.0011640833333333336,0.0292998333333,0.0866735833333,-0.0637025,-0.000237166666667,0.000257083333333,4.36666666667e-05,0.02918575,-0.086565,-0.995818583333,18.3205775,0.498819083333,-46.1459055,1,0,0
2018-06-11 19:55:43.844709,0.00043715384615384618,0.00040646153846153848,-0.001492923076923077,0.0292625384615,0.0867732307692,-0.0636691538462,2.50769230769e-05,-7.40769230769e-05,-4.54615384615e-05,0.0291483846154,-0.0866644615385,-0.995811,18.3186507692,0.492322153846,-46.1467402308,1,0,0
2018-06-11 19:55:44.094709,-0.00026041666666666661,-0.00014358333333333337,-0.0016454166666666666,0.0294191666667,0.0867458333333,-0.0637444166667,0.000378166666667,-3.58333333333e-06,-0.000214583333333,0.0293043333333,-0.086637,-0.995809,18.3252361667,0.495416166667,-46.1440919167,1,0,0
2018-06-11 19:55:44.344709,-9.5769230769230775e-05,0.00012838461538461539,-0.00069630769230769225,0.0293628461538,0.0867026153846,-0.0637646153846,-6.69230769231e-05,-0.000151230769231,0.000116307692308,0.0292483076923,-0.0865943076923,-0.995814153846,18.3234963077,0.497568076923,-46.1447610769,1,0,0
2018-06-11 19:55:44.594709,0.0004159166666666667,-0.00050558333333333347,-0.0012675833333333332,0.0294004166667,0.08674875,-0.0637906666667,-0.000336583333333,8.83333333333e-05,-4.94166666667e-05,0.0292855,-0.08664,-0.995809,18.3241954167,0.496629583333,-46.1444925,1,0,0
2018-06-11 19:55:44.844709,-0.00022715384615384611,0.0001710769230769231,-0.0014672307692307693,0.0294828461538,0.0867267692308,-0.0638708461538,-0.000151,-6.79230769231e-05,2.93846153846e-05,0.0293679230769,-0.086618,-0.995808615385,18.3282849231,0.497920461538,-46.1428545385,1,0,0
2018-06-11 19:55:45.094709,8.3166666666666664e-05,-5.7166666666666717e-05,-0.0010868333333333333,0.0293215833333,0.0866700833333,-0.0638816666667,-7.65833333333e-05,8.85e-05,-4.78333333333e-05,0.0292075,-0.08656175,-0.99581825,18.3209323333,0.501242916667,-46.1457396667,1,0,0
2018-06-11 19:55:45.344709,0.00018538461538461542,1.8384615384615416e-05,-0.0010856923076923079,0.0292585384615,0.0867632307692,-0.0638853846154,0.000172153846154,-6.81538461538e-05,-4.97692307692e-05,0.0291444615385,-0.0866543076923,-0.995811923077,18.3175776923,0.496986692308,-46.1471167692,1,0,0
2018-06-11 19:55:45.594709,0.00049816666666666672,-0.00012933333333333335,-0.0010524166666666668,0.0293226666667,0.0867434166667,-0.0639358333333,-0.000255416666667,1.08333333333e-06,-0.0001385,0.029208,-0.0866345833333,-0.995811916667,18.32013075,0.498654,-46.1460855,1,0,0
2018-06-11 19:55:45.844709,0.00022807692307692305,-0.00035276923076923077,-0.0014214615384615385,0.0293783846154,0.0867099230769,-0.0639614615385,0.000241846153846,9.53076923077e-05,0.000441692307692,0.0292637692308,-0.0866011538462,-0.995813076923,18.3226493077,0.500948153846,-46.1450600769,1,0,0
2018-06-11 19:55:46.094709,0.0001714166666666667,-0.00022791666666666671,-0.0011653333333333335,0.0293330833333,0.0868245,-0.0639478333333,-0.000174166666667,0.000354833333333,0.000212916666667,0.0292184166667,-0.0867155,-0.995804416667,18.3211466667,0.495332166667,-46.14571725,1,0,0
2018-06-11 19:55:46.344709,7.8923076923076893e-05,-0.00023230769230769236,-0.0014658461538461542,0.0292536153846,0.0868447692308,-0.0639176923077,-0.000237384615385,0.000178153846154,-5.9e-05,0.0291393076923,-0.0867356153846,-0.995805076923,18.3172306154,0.493592384615,-46.1472912308,1,0,0
2018-06-11 19:55:46.594709,0.00024608333333333334,-0.00020116666666666669,-0.00114025,0.0291135833333,0.0867261666667,-0.0639183333333,-0.000259,-0.000618416666667,-0.000129833333333,0.029,-0.0866174166667,-0.9958195,18.3118471667,0.498589583333,-46.1493739167,1,0,0
2018-06-11 19:55:46.844709,-0.00045369230769230773,-0.00042138461538461541,-0.0010232307692307693,0.0289843846154,0.086689,-0.0639203076923,-0.000157384615385,-0.000149692307692,-5.35384615385e-05,0.0288715384615,-0.0865806923077,-0.995826307692,18.3052025385,0.501096384615,-46.1519827692,1,0,0
2018-06-11 19:55:47.094709,0.00053758333333333338,-0.00049866666666666668,-0.00091500000000000001,0.0289923333333,0.0868805833333,-0.0639399166667,-9.14166666667e-05,-0.00079725,0.000318916666667,0.028879,-0.0867715,-0.9958095,18.3049373333,0.492787333333,-46.1521768333,1,0,0
2018-06-11 19:55:47.344709,4.4307692307692315e-05,-0.0001554615384615384,-0.0014013076923076924,0.0290893846154,0.0868736923077,-0.0639113076923,-0.000242153846154,0.000420538461538,0.000263923076923,0.0289756153846,-0.0867644615385,-0.995807384615,18.3090957692,0.492173076923,-46.1505336154,1,0,0
2018-06-11 19:55:47.594709,3.5999999999999981e-05,-0.00028716666666666669,-0.0015022500000000001,0.0291525833333,0.0869000833333,-0.06392275,0.000271083333333,-9.08333333333e-05,4.45833333333e-05,0.0290383333333,-0.0867909166667,-0.995803166667,18.3124395,0.491416833333,-46.1492150833,1,0,0
2018-06-11 19:55:47.844709,-0.00019700000000000007,-0.00029476923076923088,-0.00093661538461538459,0.0291006153846,0.0868423076923,-0.0639159230769,-7.03846153846e-05,-0.000151461538462,-0.000137615384615,0.0289866923077,-0.0867332307692,-0.995809846154,18.3103950769,0.494040692308,-46.1499982308,1,0,0
2018-06-11 19:55:48.094709,0.00018674999999999999,-0.00031208333333333332,-0.0014309166666666669,0.0292140833333,0.0868496666667,-0.0639034166667,-0.000167166666667,0.000353416666667,0.000119916666667,0.0290998333333,-0.0867405,-0.995805916667,18.3152754167,0.493105083333,-46.1480704167,1,0,0
2018-06-11 19:55:48.344709,9.4923076923076916e-05,-0.00048499999999999997,-0.00090953846153846163,0.0292413076923,0.086875,-0.0638915384615,0.000259307692308,-0.000312615384615,-0.000133,0.0291270769231,-0.0867658461538,-0.995802769231,18.3168307692,0.492337076923,-46.147462,1,0,0
2018-06-11 19:55:48.594709,-0.00036575000000000003,-7.3833333333333344e-05,-0.0016454166666666666,0.0293030833333,0.0869023333333,-0.0638858333333,-7.35e-05,9.04166666667e-05,3.325e-05,0.02918825,-0.0867930833333,-0.995798666667,18.3201876667,0.490433916667,-46.1461508333,1,0,0
2018-06-11 19:55:48.844709,0.0004483076923076924,8.6384615384615409e-05,-0.0017155384615384615,0.0292788461538,0.0869127692308,-0.0639156153846,0.000105153846154,0.00132338461538,-0.000162615384615,0.0291642307692,-0.0868033076923,-0.995798615385,18.3174926923,0.490241153846,-46.1472219231,1,0,0
2018-06-11 19:55:49.094709,-0.00059691666666666682,0.00034908333333333335,-0.0011534999999999998,0.0295475,0.0866761666667,-0.06374625,0.00105841666667,0.00106233333333,0.00109891666667,0.0294323333333,-0.0865676666667,-0.995811083333,18.3318683333,0.4987,-46.1414221667,1,0,0
2018-06-11 19:55:49.344709,0.00045707692307692317,0.00021484615384615384,-0.001136153846153846,0.0295483846154,0.0870037692308,-0.0637124615385,0.00164907692308,-0.000392846153846,-0.000119769230769,0.0294323076923,-0.0868940769231,-0.995782615385,18.3314913846,0.483142692308,-46.1417362308,1,0,0
2018-06-11 19:55:49.594709,-0.00085308333333333341,0.00020150000000000007,0.0020203333333333336,0.02989725,0.0869351666667,-0.0636685,0.00047225,0.00602208333333,0.0003035,0.02978,-0.08682575,-0.995778166667,18.3456190833,0.485722916667,-46.13609225,1,0,0
2018-06-11 19:55:49.844709,5.4461538461538418e-05,-0.00026161538461538455,-0.00090330769230769219,0.0327966923077,0.087586,-0.0636943846154,0.001438,0.00998292307692,-0.000196230769231,0.0326651538462,-0.0874740769231,-0.995630615385,18.4762869231,0.456028461538,-46.0841977692,1,0,0
2018-06-11 19:55:50.094709,-0.0007389166666666668,0.00086158333333333323,0.00097316666666666645,0.0312823333333,0.0871216666667,-0.0637568333333,-0.00291458333333,-0.01353625,-0.00105591666667,0.0311586666667,-0.0870115833333,-0.99571925,18.4171224167,0.476518583333,-46.1076503333,1,0,0
2018-06-11 19:55:50.344709,0.00019400000000000005,0.00016569230769230767,-0.0010257692307692307,0.030348,0.0865774615385,-0.0639391538462,-0.00168307692308,0.000256,-0.000671538461538,0.0302297692308,-0.0864692307692,-0.995795769231,18.3676619231,0.505543461538,-46.1271097692,1,0,0
2018-06-11 19:55:50.594709,-0.00061125000000000003,-0.00019741666666666668,-0.00088133333333333336,0.0301143333333,0.0865653333333,-0.06403125,0.000268083333333,-0.00187441666667,-0.00012475,0.0299970833333,-0.0864570833333,-0.995804,18.3577708333,0.508878666667,-46.13101125,1,0,0
2018-06-11 19:55:50.844709,-0.00024953846153846158,-0.00015492307692307691,-0.0016056153846153846,0.0296695384615,0.0867574615385,-0.0641731538462,0.000162538461538,-0.00108,-0.00014,0.0295535384615,-0.0866488461538,-0.995800461538,18.3361166154,0.502158615385,-46.1396956923,1,0,0
2018-06-11 19:55:51.094709,0.00060691666666666674,-0.00060125000000000011,-0.0013978333333333332,0.0297879166667,0.0867854166667,-0.0641794166667,-0.000177166666667,0.0002145,-0.000164416666667,0.0296715833333,-0.0866765833333,-0.9957945,18.3402923333,0.501690583333,-46.1380418333,1,0,0
2018-06-11 19:55:51.344709,-0.00049676923076923075,0.00031438461538461541,-0.0012013846153846154,0.0297565384615,0.0868185384615,-0.0641906153846,-0.000734384615385,0.000359692307692,-0.000172692307692,0.0296400769231,-0.0867095384615,-0.995792538462,18.3395015385,0.498688307692,-46.1383895385,1,0,0
2018-06-11 19:55:51.594709,5.7333333333333302e-05,-1.0666666666666664e-05,-0.0015136666666666666,0.0297588333333,0.0867808333333,-0.0642205,-8.41666666667e-06,-0.000690583333333,3.23333333333e-05,0.0296426666667,-0.086672,-0.995795916667,18.3394809167,0.501504416667,-46.1383683333,1,0,0
2018-06-11 19:55:51.844709,0.00022323076923076924,0.0003183846153846154,-0.00079284615384615374,0.0297211538462,0.086653,-0.0641707692308,0.000151384615385,1.97692307692e-05,0.000341692307692,0.0296054615385,-0.0865444615385,-0.995808,18.3375091538,0.506592384615,-46.1390950769,1,0,0
2018-06-11 19:55:52.094709,0.0002153333333333333,-0.00017275000000000002,-0.0013688333333333332,0.0297174166667,0.0866193333333,-0.0641669166667,4.33333333333e-06,0.000189416666667,-0.000330916666667,0.0296018333333,-0.0865111666667,-0.995810916667,18.3375888333,0.508387,-46.1390440833,1,0,0
2018-06-11 19:55:52.344709,0.00035800000000000003,-0.00030338461538461541,-0.0012814615384615384,0.029792,0.0865377692308,-0.0641965384615,-0.000567692307692,0.000836615384615,-2e-06,0.029676,-0.0864298461538,-0.995815769231,18.3405108462,0.512844230769,-46.1378320769,1,0,0
2018-06-11 19:55:52.594709,-0.00012291666666666668,-7.1166666666666671e-05,-0.0011935833333333334,0.0297835833333,0.086558,-0.0641666666667,4.58333333333e-06,1.28333333333e-05,-5.49166666667e-05,0.0296675833333,-0.0864498333333,-0.995814416667,18.3405973333,0.511478,-46.137813,1,0,0
2018-06-11 19:55:52.844709,1.8384615384615406e-05,9.3000000000000011e-05,-0.0013268461538461539,0.0298112307692,0.0866072307692,-0.0641846923077,-0.000403384615385,0.000266769230769,0.000178615384615,0.0296951538462,-0.0864990769231,-0.995809307692,18.3418850769,0.509019846154,-46.137329,1,0,0
2018-06-11 19:55:53.094709,-0.00020599999999999999,0.00020783333333333339,-0.0012955,0.0298873333333,0.0864501666667,-0.0641888333333,-0.000253583333333,0.000193,-5.55e-05,0.02977125,-0.0863425833333,-0.99582075,18.3455620833,0.516385916667,-46.13578575,1,0,0
2018-06-11 19:55:53.344709,1.3076923076923312e-06,-0.00058353846153846151,-0.0012298461538461538,0.0299097692308,0.0865253076923,-0.0642203846154,0.000100615384615,-5.93846153846e-05,-0.000298153846154,0.0297932307692,-0.0864173846154,-0.995813384615,18.3463543846,0.514206846154,-46.1354945385,1,0,0
2018-06-11 19:55:53.594709,0.00010058333333333332,-0.00016866666666666666,-0.0014100833333333335,0.0298885833333,0.08659925,-0.0642133333333,9.93333333333e-05,0.000368583333333,0.000396416666667,0.0297721666667,-0.0864911666667,-0.995807666667,18.345161,0.51023025,-46.136014,1,0,0
2018-06-11 19:55:53.844709,-4.3153846153846146e-05,-0.00037853846153846152,-0.00081353846153846146,0.0298637692308,0.0866403846154,-0.0641983076923,-5.87692307692e-05,-0.000468923076923,-0.000125384615385,0.0297473076923,-0.0865320769231,-0.995804923077,18.3445633077,0.508314,-46.1362722308,1,0,0
2018-06-11 19:55:54.094709,-0.00028341666666666668,-7.7500000000000173e-06,-0.0017138333333333335,0.029664,0.0866153333333,-0.0641771666667,0.000194333333333,-0.000607916666667,0.000327,0.0295485,-0.0865070833333,-0.995812833333,18.3356103333,0.508843916667,-46.1398253333,1,0,0
2018-06-11 19:55:54.344709,-3.030769230769231e-05,0.0001383076923076923,-0.00084376923076923073,0.0297388461538,0.0866384615385,-0.0642310769231,0.000357076923077,-0.000391076923077,-0.000117615384615,0.029623,-0.08653,-0.995808769231,18.3384226923,0.508507538462,-46.1387106154,1,0,0
2018-06-11 19:55:54.594709,0.00024566666666666666,4.8666666666666673e-05,-0.0020475833333333335,0.02975575,0.0865456666667,-0.0642754166667,-5.43333333333e-05,0.000274416666667,4.66666666667e-05,0.0296399166667,-0.08643775,-0.99581625,18.3386905,0.5136055,-46.1385478333,1,0,0
2018-06-11 19:55:54.844709,-0.00044392307692307694,3.1769230769230751e-05,-0.0015429230769230769,0.0296163846154,0.0865266153846,-0.0642267692308,0.000677846153846,-0.000559230769231,0.000466461538462,0.0295013076923,-0.0864186923077,-0.995822153846,18.3333881538,0.514156538462,-46.1406497692,1,0,0
2018-06-11 19:55:55.094709,-0.0001319166666666666,-0.00026400000000000007,-0.0015092500000000002,0.0295793333333,0.0864845,-0.0642225,3.79166666667e-05,-0.00070075,-2.525e-05,0.0294644166667,-0.0863765833333,-0.99582675,18.3314134167,0.515358083333,-46.1414203333,1,0,0
2018-06-11 19:55:55.344709,-0.00030908333333333336,-0.0004081666666666667,-0.0017713333333333331,0.029504,0.0864239166667,-0.0642539166667,0.000308666666667,-0.000257916666667,-0.000206083333333,0.0293896666667,-0.0863164166667,-0.99583425,18.327799,0.519365916667,-46.1428116667,1,0,0
2018-06-11 19:55:55.594709,0.00032238461538461539,-0.00016338461538461534,-0.0012991538461538461,0.0295649230769,0.0865076153846,-0.0642916153846,0.000688769230769,-0.000720769230769,0.000141076923077,0.0294500769231,-0.0863996923077,-0.995825230769,18.3298546923,0.516009384615,-46.1420326154,1,0,0
2018-06-11 19:55:55.844709,0.00047799999999999996,0.0001771666666666667,-0.00130075,0.0296030833333,0.0865799166667,-0.0642741666667,0.000302,9.66666666667e-06,0.000234166666667,0.0294878333333,-0.08647175,-0.995817833333,18.3314400833,0.51222675,-46.1414451667,1,0,0
2018-06-11 19:55:56.094709,3.1307692307692318e-05,8.72307692307692e-05,-0.0017331538461538463,0.0295980769231,0.0866154615385,-0.0642477692308,0.000273461538462,-0.000879769230769,0.000465384615385,0.0294827692308,-0.0865070769231,-0.995814923077,18.3320906923,0.509694076923,-46.1412138462,1,0,0
2018-06-11 19:55:56.344709,-0.00019541666666666663,-0.00016541666666666677,-0.0015128333333333333,0.0296943333333,0.0866179166667,-0.0641921666667,0.000118583333333,0.000458833333333,0.00049075,0.0295786666667,-0.0865095833333,-0.995811833333,18.3365,0.509265666667,-46.139467,1,0,0
2018-06-11 19:55:56.594709,5.7538461538461553e-05,-0.00038307692307692299,-0.0010789999999999999,0.0296894615385,0.0865673076923,-0.0641831538462,-0.000124384615385,0.000191615384615,-0.000132307692308,0.0295738461538,-0.0864591538462,-0.995816230769,18.3361103846,0.511177153846,-46.1396006923,1,0,0
2018-06-11 19:55:56.844709,0.00027250000000000001,-0.00032249999999999998,-0.0014293333333333335,0.029684,0.0864934166667,-0.0641773333333,-0.000233583333333,0.000116416666667,-4.5e-05,0.02956875,-0.0863855833333,-0.995822833333,18.3358528333,0.51467925,-46.13966425,1,0,0
2018-06-11 19:55:57.094709,2.4615384615384027e-06,0.00019276923076923079,-0.0015827692307692309,0.0297288461538,0.0863385384615,-0.0641806153846,-0.000381076923077,4.05384615385e-05,-5.43846153846e-05,0.0296137692308,-0.0862311538462,-0.995834923077,18.3381080769,0.521188846154,-46.1386941538,1,0,0
2018-06-11 19:55:57.344709,4.4749999999999956e-05,-0.00042133333333333324,-0.00055458333333333325,0.0297655,0.0863788333333,-0.0641918333333,2.75e-05,-0.000137083333333,-0.000398583333333,0.0296500833333,-0.0862715,-0.995830333333,18.339873,0.520648833333,-46.1379989167,1,0,0
2018-06-11 19:55:57.594709,0.00084930769230769218,-0.0010009230769230768,-0.001353,0.0298643076923,0.086607,-0.0641911538462,1.10769230769e-05,-0.000520384615385,0.000199923076923,0.0297480769231,-0.0864988461538,-0.995807692308,18.3434484615,0.510339846154,-46.1366938462,1,0,0
2018-06-11 19:55:57.844709,0.00010974999999999997,0.00017091666666666668,-0.0013268333333333335,0.0298454166667,0.0867256666667,-0.0641745833333,0.000365166666667,4.93333333333e-05,4.25833333333e-05,0.0297288333333,-0.0866170833333,-0.995798083333,18.343449,0.503464416667,-46.13676875,1,0,0
2018-06-11 19:55:58.094709,-0.00022100000000000003,-0.0001313846153846154,-0.00098876923076923078,0.0298020769231,0.0866763846154,-0.0641788461538,8.9e-05,-0.000185,0.000109,0.0296857692308,-0.0865679230769,-0.995803538462,18.341757,0.506065769231,-46.1374128462,1,0,0
2018-06-11 19:55:58.344709,-9.500000000000009e-06,6.6000000000000032e-05,-0.0014301666666666666,0.02976475,0.0866815833333,-0.06420425,-7.11666666667e-05,0.00023425,-0.000414583333333,0.0296484166667,-0.0865731666667,-0.995804083333,18.3397310833,0.50590575,-46.1382199167,1,0,0
2018-06-11 19:55:58.594709,5.7692307692307342e-06,-0.00021961538461538464,-0.001475846153846154,0.0297604615385,0.0866253846154,-0.0642093846154,-5.92307692308e-06,-9.7e-05,0.000596230769231,0.0296444615385,-0.0865171538462,-0.995809230769,18.3392586923,0.508787153846,-46.1383756154,1,0,0
2018-06-11 19:55:58.844709,-0.00040283333333333339,-0.00023816666666666666,-0.0010437500000000002,0.02972,0.08658175,-0.06418775,-0.00043825,0.000328833333333,0.000110666666667,0.0296043333333,-0.08647375,-0.995814083333,18.338151,0.510699333333,-46.138795,1,0,0
2018-06-11 19:55:59.094709,0.0003308461538461539,-0.00035392307692307687,-0.0014379999999999998,0.0296317692308,0.0865296923077,-0.0641725384615,-4.69230769231e-06,-0.000417384615385,0.000269692307692,0.0295166153846,-0.0864216923077,-0.995821307692,18.3334085385,0.513028846154,-46.140654,1,0,0
2018-06-11 19:55:59.344709,-0.00028199999999999997,-0.0005105000000000001,-0.00097983333333333342,0.0296011666667,0.0866184166667,-0.0641914166667,-9.075e-05,-0.000373583333333,0.000123,0.0294859166667,-0.08651025,-0.9958145,18.3325855833,0.509277833333,-46.1410220833,1,0,0
2018-06-11 19:55:59.594709,-0.00017461538461538458,-0.00021930769230769231,-0.0015598461538461536,0.0295069230769,0.0867460769231,-0.0642140769231,0.000245,-0.000167153846154,-6.19230769231e-05,0.0293916923077,-0.0866373846154,-0.995806230769,18.3279045385,0.503569769231,-46.142945,1,0,0
2018-06-11 19:55:59.844709,0.00013933333333333338,0.00047699999999999999,-0.00090041666666666655,0.0295590833333,0.0867124166667,-0.06426675,0.000263416666667,0.00016175,2.75e-05,0.0294436666667,-0.0866040833333,-0.9958075,18.3295300833,0.5056175,-46.1422771667,1,0,0
2018-06-11 19:56:00.094709,6.8615384615384645e-05,-0.00014099999999999996,-0.00072015384615384606,0.0297185384615,0.086669,-0.0642644615385,0.000242615384615,8.21538461538e-05,1.29230769231e-05,0.0296026923077,-0.0865607692308,-0.995806769231,18.337344,0.507667,-46.1391484615,1,0,0
2018-06-11 19:56:00.344709,8.4833333333333353e-05,-0.00016549999999999998,-0.00082258333333333326,0.0298420833333,0.0866868333333,-0.0642675,-0.000439,0.000344583333333,-0.000166666666667,0.0297256666667,-0.0865783333333,-0.9958015,18.3428821667,0.507009083333,-46.1369548333,1,0,0
2018-06-11 19:56:00.594709,-3.2461538461538425e-05,0.00010661538461538459,-0.0016953076923076919,0.0299706153846,0.0865793846154,-0.0642476153846,-0.000325153846154,8.79230769231e-05,-0.000163615384615,0.0298540769231,-0.0864713846154,-0.995807,18.3490345385,0.511244,-46.1344625385,1,0,0
2018-06-11 19:56:00.844709,0.00018558333333333336,0.00019333333333333331,-0.0013940833333333333,0.0298976666667,0.0865861666667,-0.0642318333333,7.75833333333e-05,8.2e-05,0.000373666666667,0.02978125,-0.0864781666667,-0.995808583333,18.34525575,0.510837083333,-46.13596925,1,0,0
2018-06-11 19:56:01.094709,0.0004373076923076923,-0.00038930769230769233,-0.00067076923076923075,0.0298233846154,0.0865491538462,-0.064232,0.000156076923077,-7.30769230769e-05,8.71538461538e-05,0.0297071538462,-0.0864411538462,-0.995814153846,18.3417658462,0.513415230769,-46.1373280769,1,0,0
2018-06-11 19:56:01.344709,0.0004615000000000001,6.0916666666666645e-05,-0.0008595833333333334,0.0298670833333,0.0865183333333,-0.06427075,-0.00027275,-0.000180166666667,0.000101666666667,0.0297508333333,-0.0864103333333,-0.995815333333,18.3437216667,0.51474525,-46.1365354167,1,0,0
2018-06-11 19:56:01.594709,-0.0002087692307692308,-4.3692307692307703e-05,-0.00079623076923076934,0.0298579230769,0.0865641538462,-0.0642852307692,0.000244769230769,-0.000152692307692,-0.000324615384615,0.0297415384615,-0.0864561538462,-0.995811538462,18.3440236923,0.513184538462,-46.136434,1,0,0
2018-06-11 19:56:01.844709,7.9083333333333309e-05,-0.00045341666666666669,-0.00086916666666666653,0.0297496666667,0.0866719166667,-0.06426975,-0.000273416666667,0.000174416666667,0.000183,0.0296335833333,-0.0865635,-0.995805666667,18.33852275,0.50792375,-46.1386780833,1,0,0
2018-06-11 19:56:02.094709,0.00034107692307692317,-9.384615384615383e-05,-0.0011379999999999997,0.029835,0.0866150769231,-0.0642570769231,-8e-06,-0.000233538461538,8.13846153846e-05,0.0297186153846,-0.0865067692308,-0.995807846154,18.3424914615,0.510135076923,-46.1370753077,1,0,0
2018-06-11 19:56:02.344709,-0.00021549999999999998,0.00041300000000000001,-0.0014827499999999999,0.02964925,0.086536,-0.0642578333333,7.71666666667e-05,-9.10833333333e-05,0.0002775,0.0295339166667,-0.0864280833333,-0.995820166667,18.3341555,0.513404083333,-46.1403529167,1,0,0
2018-06-11 19:56:02.594709,-5.9307692307692287e-05,-0.0001579230769230769,-0.0014453846153846155,0.0296566153846,0.0864577692308,-0.0642796153846,-4.76923076923e-06,9.34615384615e-05,-8.61538461538e-06,0.0295416923077,-0.0863500769231,-0.995826846154,18.3344344615,0.517923538462,-46.1401913077,1,0,0
2018-06-11 19:56:02.844709,0.00035633333333333334,0.0001281666666666667,-0.0016612499999999995,0.0297744166667,0.0864261666667,-0.0643314166667,-0.000180166666667,-0.00017775,-8.325e-05,0.029659,-0.0863186666667,-0.995826083333,18.3392329167,0.51993,-46.1382618333,1,0,0
2018-06-11 19:56:03.094709,0.00018515384615384615,0.00016915384615384619,-0.0007456153846153845,0.0298448461538,0.0864031538462,-0.0643117692308,-0.000257538461538,9.52307692308e-05,0.000478692307692,0.0297292307692,-0.0862954615385,-0.995825923077,18.3427560769,0.520621846154,-46.1368534615,1,0,0
2018-06-11 19:56:03.344709,-0.00023291666666666665,9.1583333333333314e-05,-0.0010389166666666665,0.02989225,0.0863475,-0.06430025,0.0002635,0.000177416666667,-8.56666666667e-05,0.0297763333333,-0.0862401666667,-0.995829333333,18.3453134167,0.523309416667,-46.1358065833,1,0,0
2018-06-11 19:56:03.594709,0.00020992307692307703,-0.00036984615384615387,-0.0012237692307692307,0.0296842307692,0.0863675384615,-0.0643412307692,8.73846153846e-05,-0.000311923076923,-0.000499846153846,0.0295693076923,-0.0862602307692,-0.995833769231,18.3357700769,0.523218384615,-46.1395996154,1,0,0
2018-06-11 19:56:03.844709,-4.0333333333333336e-05,0.00023233333333333333,-0.00093783333333333338,0.0296748333333,0.0864018333333,-0.0643468333333,-0.000434583333333,2.5e-06,-0.000451083333333,0.0295599166667,-0.0862945833333,-0.995831,18.3348615833,0.52123575,-46.1399841667,1,0,0
2018-06-11 19:56:04.094709,-8.5615384615384584e-05,-0.00033176923076923086,-0.0011247692307692308,0.0296820769231,0.0864587692308,-0.0643091538462,-6.76923076923e-06,0.000178615384615,0.000310230769231,0.0295668461538,-0.0863510769231,-0.995825846154,18.3354753077,0.518715846154,-46.1397691538,1,0,0
2018-06-11 19:56:04.344709,0.00016458333333333334,-0.0003835,-0.0016540000000000001,0.02979125,0.0865123333333,-0.0643301666667,9.39166666667e-05,0.00018,-0.000272333333333,0.0296754166667,-0.0864045,-0.995818,18.3405645,0.516179333333,-46.1377745833,1,0,0
2018-06-11 19:56:04.594709,-9.1230769230769257e-05,-0.00021576923076923064,-0.0011306153846153846,0.0297406923077,0.086494,-0.0643798461538,-0.000236461538462,-0.000227538461538,-0.000428846153846,0.0296254615385,-0.0863861538462,-0.995821230769,18.3380619231,0.517679461538,-46.1387522308,1,0,0
2018-06-11 19:56:04.844709,-0.00012941666666666668,-0.00033466666666666671,-0.0010616666666666667,0.0295935833333,0.0865665,-0.064417,-9.30833333333e-05,-0.000350166666667,0.000266833333333,0.0294785,-0.0864584166667,-0.995819333333,18.3307621667,0.515357833333,-46.14167875,1,0,0
2018-06-11 19:56:05.094709,0.00014907692307692319,-0.00020469230769230769,-0.0012309999999999999,0.0297066923077,0.0864731538462,-0.0644411538462,0.000248384615385,1.82307692308e-05,-9.68461538462e-05,0.0295913076923,-0.0863654615385,-0.995824076923,18.335691,0.519933615385,-46.1396696154,1,0,0
2018-06-11 19:56:05.344709,-1.5333333333333318e-05,-0.00028483333333333334,-0.00108325,0.0296975,0.0866191666667,-0.0644825833333,0.000357666666667,-0.000172416666667,-8.5e-05,0.02958175,-0.086511,-0.995811583333,18.33550025,0.514087166667,-46.1398111667,1,0,0
2018-06-11 19:56:05.594709,-0.00016261538461538464,0.0002670769230769231,-0.001417923076923077,0.0295875384615,0.0866391538462,-0.0644358461538,-7.93076923077e-05,0.000100461538462,0.000146615384615,0.0294723076923,-0.0865308461538,-0.995813230769,18.3307429231,0.511773538462,-46.1417257692,1,0,0
2018-06-11 19:56:05.844709,-0.00027408333333333337,-0.00033958333333333328,-0.0011829166666666665,0.0296135833333,0.0865364166667,-0.0643746666667,-0.0003485,9.53333333333e-05,8.30833333333e-05,0.0294983333333,-0.0864283333333,-0.995821166667,18.33209625,0.516038666667,-46.1411419167,1,0,0
2018-06-11 19:56:06.094709,0.00032553846153846158,-0.00055476923076923075,-0.00083861538461538448,0.0296894615385,0.0866625384615,-0.064327,-0.000481384615385,0.000430538461538,5.75384615385e-05,0.0295735384615,-0.0865540769231,-0.995808153846,18.3354254615,0.509637384615,-46.1398901538,1,0,0
2018-06-11 19:56:06.344709,-6.5500000000000006e-05,-1.4249999999999948e-05,-0.0012115833333333332,0.0297669166667,0.0865944166667,-0.0643456666667,-7.70833333333e-05,-0.00052125,-0.000257416666667,0.0296509166667,-0.0864865,-0.99581175,18.339338,0.512658083333,-46.1383010833,1,0,0
2018-06-11 19:56:06.594709,8.7615384615384606e-05,5.1923076923076962e-05,-0.0012882307692307694,0.029639,0.08652,-0.0643233076923,0.000258307692308,-0.000222153846154,-0.000331538461538,0.0295239230769,-0.086412,-0.995822,18.3333969231,0.515697692308,-46.1406290769,1,0,0
2018-06-11 19:56:06.844709,0.00016491666666666665,-0.00031341666666666665,-0.00095258333333333339,0.02961075,0.0865205,-0.0643375,-7.575e-05,9.75e-05,-0.000175666666667,0.02949575,-0.0864125833333,-0.995822916667,18.3316435833,0.516121916667,-46.1413200833,1,0,0
2018-06-11 19:56:07.094709,1.1416666666666609e-05,0.00029524999999999999,-0.0010478333333333333,0.02954275,0.0864969166667,-0.0642865833333,0.000180833333333,-0.000258083333333,0.0002785,0.0294278333333,-0.086389,-0.99582675,18.3290155,0.515886083333,-46.1423670833,1,0,0
2018-06-11 19:56:07.344709,0.00011823076923076926,-3.9307692307692336e-05,-0.001122230769230769,0.0295675384615,0.086347,-0.0642703846154,-0.000151076923077,-0.000141769230769,-7.61538461538e-06,0.0294530769231,-0.0862398461538,-0.995838769231,18.3302250769,0.522933692308,-46.1418072308,1,0,0
2018-06-11 19:56:07.594709,0.00016891666666666672,-0.00021033333333333331,-0.0014580833333333331,0.02966675,0.0864068333333,-0.0642763333333,1.4e-05,0.000539916666667,8.85e-05,0.0295515833333,-0.0862995,-0.995830833333,18.33435075,0.5201595,-46.1401995833,1,0,0
2018-06-11 19:56:07.844709,0.00014153846153846156,-0.00027707692307692302,-0.0013885384615384617,0.0297816923077,0.0865043846154,-0.0642930769231,-0.000550769230769,0.000596615384615,-0.000102769230769,0.029666,-0.0863965384615,-0.995819076923,18.3396569231,0.516193076923,-46.1381353846,1,0,0
2018-06-11 19:56:08.094709,0.00025741666666666664,-0.00027666666666666676,-0.0016313333333333334,0.0297721666667,0.08658025,-0.0643400833333,0.00081425,-0.0011395,-0.000318,0.0296561666667,-0.0864720833333,-0.995812666667,18.33969175,0.513365666667,-46.13815225,1,0,0
2018-06-11 19:56:08.344709,0.00026338461538461541,0.0001296153846153846,-0.0011925384615384615,0.0295924615385,0.0866096153846,-0.0643702307692,-7.31538461538e-05,-0.000954076923077,0.000340384615385,0.0294771538462,-0.0865015384615,-0.995815538462,18.3313030769,0.512389923077,-46.1414968462,1,0,0
2018-06-11 19:56:08.594709,0.00015875000000000001,-0.00041191666666666682,-0.0012862500000000001,0.02954425,0.08652,-0.0644031666667,0.000288666666667,-0.000606333333333,-0.000330583333333,0.0294293333333,-0.0864116666667,-0.995824666667,18.3283910833,0.517012916667,-46.142603,1,0,0
2018-06-11 19:56:08.844709,-2.0846153846153868e-05,-0.00011153846153846153,-0.00093130769230769233,0.0296203076923,0.086456,-0.0644563076923,0.000107692307692,-0.000136307692308,-0.000324846153846,0.0295053076923,-0.0863481538462,-0.995828076923,18.3312339231,0.521295538462,-46.1414245385,1,0,0
2018-06-11 19:56:09.094709,0.00014608333333333332,0.00021808333333333329,-0.00116,0.0296348333333,0.08657275,-0.0644634166667,-0.000242,0.000633833333333,2.83333333333e-06,0.0295195,-0.0864645833333,-0.9958175,18.3321265,0.5152195,-46.1411383333,1,0,0
2018-06-11 19:56:09.344709,-0.00025599999999999993,-0.00046538461538461539,-0.00047730769230769235,0.0297755384615,0.0865556153846,-0.0644297692308,0.000176153846154,0.000111692307692,0.000414615384615,0.0296596923077,-0.0864476923077,-0.995814769231,18.3393869231,0.516401153846,-46.13824,1,0,0
2018-06-11 19:56:09.594709,-0.00012966666666666668,-0.00019541666666666663,-0.00080466666666666653,0.0297625833333,0.0866260833333,-0.06441575,-0.00051125,0.000374833333333,0.000183916666667,0.0296465,-0.0865175833333,-0.995809083333,18.3386405833,0.512407583333,-46.1385801667,1,0,0
2018-06-11 19:56:09.844709,-0.00017384615384615382,-0.00015523076923076924,-0.00060923076923076924,0.0296679230769,0.0864332307692,-0.0643663846154,-0.000145076923077,0.000446153846154,0.000162076923077,0.029553,-0.0863257692308,-0.995828615385,18.3345968462,0.520455153846,-46.1400981538,1,0,0
2018-06-11 19:56:10.094709,-3.2833333333333282e-05,0.00013733333333333336,-0.0012460833333333334,0.0295831666667,0.0864534166667,-0.0643481666667,-0.000155916666667,-6.125e-05,-6.875e-05,0.0294684166667,-0.0863456666667,-0.99582925,18.3309169167,0.51901725,-46.141576,1,0,0
2018-06-11 19:56:10.344709,0.00040107692307692305,0.00014915384615384617,-0.0014700769230769231,0.0295891538462,0.0864253076923,-0.0643476153846,-0.000230230769231,4.3e-05,0.000251923076923,0.0294746153846,-0.0863178461538,-0.995831461538,18.3307986154,0.520369153846,-46.1416086154,1,0,0
2018-06-11 19:56:10.594709,-3.7250000000000011e-05,-0.00032833333333333331,-0.00078558333333333334,0.02961575,0.0864093333333,-0.0643353333333,-0.00034175,0.00038425,0.000458083333333,0.02950075,-0.0863020833333,-0.995832083333,18.3319826667,0.52089725,-46.1411319167,1,0,0
2018-06-11 19:56:10.844709,0.00049138461538461532,-0.00020469230769230764,-0.00060976923076923079,0.0296364615385,0.086452,-0.0643233076923,1.40769230769e-05,-0.000364923076923,0.000261307692308,0.0295214615385,-0.0863443846154,-0.995828,18.3328975385,0.519140230769,-46.1407886154,1,0,0
2018-06-11 19:56:11.094709,0.00026433333333333338,-0.00046749999999999998,-0.0014622500000000002,0.0296663333333,0.0864691666667,-0.06433975,-0.000328833333333,0.000295416666667,-7.53333333333e-05,0.0295511666667,-0.0863614166667,-0.995825333333,18.3343360833,0.518601166667,-46.1402225,1,0,0
2018-06-11 19:56:11.344709,-0.00032238461538461539,-0.00014784615384615381,-0.0014897692307692309,0.0297559230769,0.0864876153846,-0.064342,0.000673461538462,-4.02307692308e-05,9.90769230769e-05,0.0296403076923,-0.0863799230769,-0.995821307692,18.3387969231,0.517787384615,-46.1384596923,1,0,0
2018-06-11 19:56:11.594709,-3.5166666666666636e-05,-0.00010391666666666665,-0.0015735833333333333,0.0297425833333,0.08646625,-0.06436875,-0.000235583333333,2.875e-05,-0.000161916666667,0.029627,-0.0863585833333,-0.995823416667,18.3379071667,0.518915,-46.1388,1,0,0
2018-06-11 19:56:11.844709,0.00041330769230769226,-0.00042261538461538462,-0.00083723076923076915,0.0298445384615,0.0864864615385,-0.0644045384615,-0.000295692307692,-3.95384615385e-05,-8.13846153846e-05,0.0297286153846,-0.0863788461538,-0.995818846154,18.3421132308,0.519026384615,-46.137126,1,0,0
2018-06-11 19:56:12.094709,0.00021166666666666672,-0.00028816666666666666,-0.0013729166666666666,0.0297674166667,0.0867845,-0.0644541666667,-0.000136916666667,-0.000856833333333,-0.000507916666667,0.0296511666667,-0.0866756666667,-0.995795333333,18.3393771667,0.506104333333,-46.1383575,1,0,0
2018-06-11 19:56:12.344709,-4.2000000000000004e-05,8.3692307692307706e-05,-0.0018877692307692306,0.0295851538462,0.0868875384615,-0.0645397692308,4.3e-05,-0.000286384615385,-0.000488692307692,0.0294691538462,-0.0867782307692,-0.995791692308,18.3299032308,0.501867384615,-46.1421687692,1,0,0
2018-06-11 19:56:12.594709,0.00030774999999999997,-0.00076816666666666656,-0.0011008333333333334,0.0293551666667,0.08710025,-0.064528,-0.000143083333333,2.43333333333e-05,0.000187166666667,0.0292396666667,-0.08699025,-0.99578,18.3190666667,0.4925355,-46.1465724167,1,0,0
2018-06-11 19:56:12.844709,6.2461538461538511e-05,-0.00068369230769230768,-0.0016586923076923079,0.0294703846154,0.0872331538462,-0.0645145384615,-0.000117461538462,0.000201153846154,-0.000255076923077,0.0293540769231,-0.0871223846154,-0.995765076923,18.3245689231,0.486104615385,-46.1444566154,1,0,0
2018-06-11 19:56:13.094709,-0.0003760833333333333,-0.00027733333333333337,-0.0023510833333333335,0.0295648333333,0.0872675,-0.0645239166667,-0.000134333333333,0.0006435,8.69166666667e-05,0.029448,-0.0871568333333,-0.995759333333,18.3291490833,0.48420625,-46.1426575,1,0,0
2018-06-11 19:56:13.344709,-0.00016346153846153849,-0.00010815384615384616,-0.0011760000000000002,0.0294353076923,0.0871201538462,-0.0645639230769,-3.34615384615e-05,-0.000124769230769,-0.000249,0.0293195384615,-0.08701,-0.995775923077,18.3232563846,0.491709692308,-46.1449176154,1,0,0
2018-06-11 19:56:13.594709,-2.3333333333333539e-06,-0.00015125000000000002,-0.00098116666666666665,0.0293535833333,0.0870990833333,-0.06460075,-0.000217166666667,0.000203666666667,-8.40833333333e-05,0.0292381666667,-0.0869890833333,-0.995780166667,18.3188820833,0.493391833333,-46.1466365,1,0,0
2018-06-11 19:56:13.844709,0.00013384615384615383,0.00024261538461538455,-0.0010066153846153847,0.0293887692308,0.0870117692308,-0.0645964615385,-0.000114846153846,-0.000202846153846,-8.21538461538e-05,0.0292733076923,-0.0869020769231,-0.995786692308,18.3205079231,0.497403615385,-46.1459473846,1,0,0
2018-06-11 19:56:14.094709,0.00080883333333333328,-0.00071291666666666671,-0.00092358333333333322,0.02957925,0.08691575,-0.0646176666667,-0.000123916666667,0.0001185,-0.000167833333333,0.0294633333333,-0.0868064166667,-0.9957895,18.328549,0.501839583333,-46.1427071667,1,0,0
2018-06-11 19:56:14.344709,-0.00012661538461538461,-0.00011761538461538462,-0.0015316153846153845,0.0297010769231,0.0869634615385,-0.0646140769231,5.35384615385e-05,0.000207076923077,-8.3e-05,0.0295843846154,-0.0868539230769,-0.995781692308,18.3345913077,0.500216,-46.1403244615,1,0,0
2018-06-11 19:56:14.594709,-0.00024050000000000005,0.00017466666666666669,-0.0011328333333333336,0.029669,0.0869068333333,-0.0646034166667,-0.000119666666667,-5.85833333333e-05,-0.000161416666667,0.0295525,-0.0867975833333,-0.995787416667,18.3337505,0.502117583333,-46.1406384167,1,0,0
2018-06-11 19:56:14.844709,5.6153846153846438e-06,-0.00012053846153846152,-0.0010567692307692307,0.029628,0.0869534615385,-0.0646130769231,-0.000105307692308,-0.000121,-7.63076923077e-05,0.0295117692308,-0.0868439230769,-0.995784692308,18.3317527692,0.500435461538,-46.1414497692,1,0,0
2018-06-11 19:56:15.094709,-0.00045124999999999988,-0.00013208333333333331,-0.0016044166666666665,0.0296035833333,0.0869715833333,-0.0646513333333,0.000418833333333,-6.10833333333e-05,-0.000328333333333,0.0294875833333,-0.0868618333333,-0.995784,18.33054725,0.500220916667,-46.1419306667,1,0,0
2018-06-11 19:56:15.344709,-0.00018484615384615387,0.00030100000000000005,-0.00076453846153846157,0.0295987692308,0.0868158461538,-0.0646959230769,-0.000179846153846,0.000121923076923,-0.000158769230769,0.0294829230769,-0.0867067692308,-0.995797538462,18.3300610769,0.507426230769,-46.1420456923,1,0,0
2018-06-11 19:56:15.594709,-7.4666666666666715e-05,-0.00045141666666666664,-0.0018678333333333333,0.0296971666667,0.0866345833333,-0.0646963333333,-0.000109333333333,-0.00032875,-0.00023775,0.0295813333333,-0.0865260833333,-0.99581025,18.3338645,0.516643083333,-46.140432,1,0,0
2018-06-11 19:56:15.844709,0.00024215384615384621,-0.00026446153846153845,-0.00093753846153846144,0.0298296923077,0.0866747692308,-0.0647444615385,-0.000339307692308,0.000283307692308,-7.6e-05,0.0297132307692,-0.0865663076923,-0.995802846154,18.3399369231,0.515541461538,-46.1380316154,1,0,0
2018-06-11 19:56:16.094709,0.0003089166666666666,0.00015775000000000004,-0.0015291666666666667,0.0296796666667,0.0866793333333,-0.06471425,-0.000286666666667,-0.0002425,3.11666666667e-05,0.029564,-0.0865708333333,-0.995806916667,18.3334259167,0.514694833333,-46.1406275833,1,0,0
2018-06-11 19:56:16.344709,0.00037961538461538471,2.9615384615384619e-05,-0.0018516923076923079,0.0295930769231,0.0864679230769,-0.0647524615385,0.000400615384615,3.49230769231e-05,-0.000303461538462,0.0294781538462,-0.0863601538462,-0.995827769231,18.3293891538,0.524924692308,-46.1421168462,1,0,0
2018-06-11 19:56:16.594709,-0.00016091666666666668,-0.00014766666666666663,-0.0016914166666666666,0.0295789166667,0.0864428333333,-0.0647805,-0.000729083333333,-0.000155166666667,0.000208916666667,0.0294640833333,-0.08633525,-0.99583025,18.3286459167,0.527258333333,-46.1423849167,1,0,0
2018-06-11 19:56:16.844709,-0.00019646153846153845,-4.99230769230769e-05,-0.0023966153846153846,0.0294690769231,0.0864036153846,-0.0647817692308,7.5e-05,-0.000292307692308,-0.000213461538462,0.0293550769231,-0.0862961538462,-0.995837076923,18.3237341538,0.528834769231,-46.1443188462,1,0,0
2018-06-11 19:56:17.094709,0.00014208333333333336,-0.00028541666666666667,-0.0010304999999999999,0.0294865833333,0.0864336666667,-0.0648493333333,-9.66666666667e-05,-6.725e-05,-0.0003115,0.0293723333333,-0.086326,-0.995833833333,18.3238070833,0.528696833333,-46.1442915833,1,0,0
2018-06-11 19:56:17.344709,-0.00032799999999999995,0.00011453846153846158,-0.0011694615384615385,0.0294458461538,0.0864344615385,-0.0648608461538,0.000488769230769,-0.000129307692308,-0.000285846153846,0.0293316153846,-0.0863269230769,-0.995835,18.3225001538,0.528648846154,-46.1448106154,1,0,0
2018-06-11 19:56:17.594709,-0.00013891666666666661,0.00016675000000000001,-0.0010402500000000002,0.0292743333333,0.0863834166667,-0.0648816666667,-1.31666666667e-05,-0.000598583333333,6.01666666667e-05,0.0291610833333,-0.0862760833333,-0.9958445,18.3143353333,0.53132375,-46.148021,1,0,0
2018-06-11 19:56:17.844709,0.00019653846153846156,-0.00010192307692307692,-0.0010470000000000002,0.0293867692308,0.0863948461538,-0.0648822307692,0.000160846153846,-0.000209846153846,4.62307692308e-05,0.029273,-0.0862876153846,-0.995840153846,18.3190743846,0.531138769231,-46.1461422308,1,0,0
2018-06-11 19:56:18.094709,0.00038408333333333334,-0.00034866666666666667,-0.00099091666666666664,0.0294963333333,0.086398,-0.0649130833333,0.000169416666667,0.0002885,0.000144916666667,0.029382,-0.0862906666667,-0.995836666667,18.3236715,0.531522333333,-46.1443121667,1,0,0
2018-06-11 19:56:18.344709,-3.8461538461538463e-05,0.00033046153846153848,-0.0011573076923076923,0.0294148461538,0.0863461538462,-0.0648926153846,-0.000245076923077,0.000119769230769,0.000207538461538,0.0293011538462,-0.0862387692308,-0.995843615385,18.3203736923,0.533068846154,-46.1456032308,1,0,0
2018-06-11 19:56:18.594709,5.8833333333333392e-05,-0.00038216666666666672,-0.0012349166666666669,0.02941675,0.0863964166667,-0.06494625,9.5e-05,2.75833333333e-05,-0.00046775,0.0293028333333,-0.086289,-0.995839083333,18.320312,0.532368083333,-46.1456368333,1,0,0
2018-06-11 19:56:18.844709,0.00013083333333333333,-0.00027491666666666664,-0.0014195833333333332,0.0294203333333,0.08652975,-0.064967,-9.19166666667e-05,0.000383833333333,0.000150916666667,0.029306,-0.08642175,-0.9958275,18.32025475,0.526392,-46.1457264167,1,0,0
2018-06-11 19:56:19.094709,-6.1307692307692308e-05,-0.00052707692307692308,-0.0016701538461538464,0.0293752307692,0.086641,-0.0649484615385,0.000823153846154,-0.000199461538462,-0.000174923076923,0.0292607692308,-0.0865326923077,-0.995819230769,18.3184733077,0.520976615385,-46.1464952308,1,0,0
2018-06-11 19:56:19.344709,8.5666666666666671e-05,-0.00022091666666666668,-0.0012080000000000001,0.02935125,0.0867395833333,-0.0649918333333,0.000267666666667,3.5e-05,-0.000189916666667,0.0292365833333,-0.086631,-0.9958115,18.3167854167,0.516892666667,-46.1472121667,1,0,0
2018-06-11 19:56:19.594709,0.00022000000000000003,0.00010138461538461538,-0.0011505384615384617,0.0293013846154,0.0867390769231,-0.0649804615385,0.000253692307692,5.03846153846e-05,-0.000181307692308,0.0291871538462,-0.0866305384615,-0.995812923077,18.3147296923,0.516890615385,-46.1480277692,1,0,0
2018-06-11 19:56:19.844709,2.6833333333333299e-05,5.5416666666666701e-05,-0.0014234166666666664,0.0293225,0.0867538333333,-0.0650426666667,9.225e-05,3.83333333333e-05,-0.000277,0.0292078333333,-0.0866450833333,-0.995811083333,18.3159935,0.517096666667,-46.1475248333,1,0,0
2018-06-11 19:56:20.094709,0.00036453846153846155,0.00030584615384615383,-0.0012426923076923077,0.0292894615385,0.0867477692308,-0.0650776153846,-7.56153846154e-05,5.28461538462e-05,-9.93076923077e-05,0.0291753076923,-0.0866391538462,-0.995812461538,18.3137444615,0.517454923077,-46.1484138462,1,0,0
2018-06-11 19:56:20.344709,2.416666666666665e-05,0.00032283333333333334,-0.00081824999999999997,0.02930175,0.0866739166667,-0.0650890833333,0.000173083333333,-0.00049125,-0.000174416666667,0.0291875833333,-0.08656575,-0.9958185,18.3142748333,0.5215035,-46.1481564167,1,0,0
2018-06-11 19:56:20.594709,0.00023292307692307688,0.00031130769230769233,-0.0017882307692307692,0.0292339230769,0.0865480769231,-0.0651026153846,0.000164153846154,-0.000109846153846,-0.000170923076923,0.0291202307692,-0.08644,-0.995831307692,18.3113265385,0.527431615385,-46.1492585385,1,0,0
2018-06-11 19:56:20.844709,0.00033191666666666672,-0.00026566666666666671,-0.0011961666666666666,0.0294010833333,0.08657075,-0.0651431666667,0.000345166666667,3.93333333333e-05,-0.000175,0.0292865833333,-0.0864626666667,-0.995824333333,18.3181864167,0.52758325,-46.1465346667,1,0,0
2018-06-11 19:56:21.094709,-0.0004834615384615384,0.00028753846153846158,-0.0014303076923076923,0.0294923846154,0.0864746923077,-0.0651326923077,-1.26923076923e-05,0.000379692307692,0.000318230769231,0.0293779230769,-0.0863670769231,-0.995830153846,18.3235093846,0.531507769231,-46.1443774615,1,0,0
2018-06-11 19:56:21.344709,0.00013316666666666674,-0.00035841666666666666,-0.0011279999999999999,0.02943175,0.0864930833333,-0.0650875833333,0.000245333333333,3.925e-05,9.7e-05,0.0293175833333,-0.0863854166667,-0.995830333333,18.3201751667,0.530262416667,-46.1457150833,1,0,0
2018-06-11 19:56:21.594709,-2.1538461538461563e-06,0.00029669230769230771,-0.00083330769230769244,0.0294523846154,0.0865616923077,-0.0651267692308,0.000234076923077,5.35384615385e-05,-0.000160769230769,0.0293378461538,-0.0864537692308,-0.995823615385,18.320981,0.527235692308,-46.1454291538,1,0,0
2018-06-11 19:56:21.844709,0.00046933333333333327,-0.00044933333333333332,-0.0018843333333333333,0.0294891666667,0.0866009166667,-0.065165,0.000502416666667,-0.00084525,3.05e-05,0.0293743333333,-0.0864925833333,-0.995819416667,18.3226685833,0.5268065,-46.14476525,1,0,0
2018-06-11 19:56:22.094709,0.00023638461538461533,0.00051392307692307696,-0.0016926153846153842,0.0295558461538,0.0865828461538,-0.0651533076923,-0.000189923076923,5.41538461538e-05,0.000332769230769,0.0294406923077,-0.0864746923077,-0.995819,18.3250917692,0.526402384615,-46.1438060769,1,0,0
2018-06-11 19:56:22.344709,3.7749999999999989e-05,-3.3833333333333279e-05,-0.0018350833333333333,0.0297039166667,0.08656225,-0.0651404166667,0.000584833333333,0.000128083333333,0.000111166666667,0.0295883333333,-0.0864541666667,-0.995816583333,18.33257775,0.527590916667,-46.1408191667,1,0,0
2018-06-11 19:56:22.594709,0.00018261538461538461,-0.00046823076923076929,-0.0014466923076923077,0.0297606153846,0.0865444615385,-0.0651693076923,-0.000270769230769,0.000217538461538,-7.71538461538e-05,0.0296447692308,-0.0864364615385,-0.995816230769,18.3348205385,0.529071769231,-46.1399116923,1,0,0
2018-06-11 19:56:22.844709,-3.7000000000000005e-05,-0.00014941666666666668,-0.0013633333333333334,0.0298323333333,0.0864885,-0.0651699166667,-4.375e-05,0.000394083333333,0.000281083333333,0.0297164166667,-0.0863805833333,-0.995819,18.3381705833,0.5312395,-46.13855425,1,0,0
2018-06-11 19:56:23.094709,-0.00088600000000000007,-0.00019999999999999998,-0.0016413846153846155,0.0298256923077,0.0865059230769,-0.0651583076923,0.000127076923077,-0.000109,-6.39230769231e-05,0.0297098461538,-0.0863982307692,-0.995817692308,18.3384529231,0.530490692308,-46.1384513077,1,0,0
2018-06-11 19:56:23.344709,8.9833333333333367e-05,-0.00055550000000000011,-0.0012132500000000001,0.02964425,0.086553,-0.0651451666667,0.00022475,0.00021775,-0.000333916666667,0.0295288333333,-0.086445,-0.995819,18.3294865833,0.528743666667,-46.1420341667,1,0,0
2018-06-11 19:56:23.594709,-0.00060138461538461539,0.00024800000000000001,-0.00095800000000000008,0.0295247692308,0.0865115384615,-0.0651361538462,-4.26923076923e-05,-0.000190692307692,-0.000145846153846,0.0294100769231,-0.0864038461538,-0.995826076923,18.3249817692,0.529493846154,-46.1438150769,1,0,0
2018-06-11 19:56:23.844709,-0.00012008333333333333,0.00010133333333333331,-0.00095058333333333334,0.0294103333333,0.0864774166667,-0.0651554166667,-4.95833333333e-05,-0.00022525,-0.0003305,0.0292960833333,-0.0863695,-0.9958325,18.31860925,0.53148775,-46.1463229167,1,0,0
2018-06-11 19:56:24.094709,0.00017992307692307692,0.00020684615384615381,-0.0017553846153846155,0.0293634615385,0.0865175384615,-0.0651826153846,0.000187153846154,-0.000437769230769,0.000189461538462,0.0292495384615,-0.0864094615385,-0.995830230769,18.3169493846,0.530632153846,-46.1469913846,1,0,0
2018-06-11 19:56:24.344709,0.00058841666666666678,-0.00011375000000000003,-0.0012399999999999998,0.029434,0.0864946666667,-0.0652245,-6.2e-05,0.000303916666667,1.775e-05,0.0293199166667,-0.0863870833333,-0.995830083333,18.3193841667,0.532276666667,-46.14600525,1,0,0
2018-06-11 19:56:24.594709,-0.00023269230769230778,-0.00016200000000000001,-0.0012656923076923077,0.0295861538462,0.0866303076923,-0.0652802307692,0.000191923076923,5.16923076923e-05,-0.000310076923077,0.0294709230769,-0.0865219230769,-0.995814076923,18.3264195385,0.527085230769,-46.1432709231,1,0,0
2018-06-11 19:56:24.844709,-0.000232,5.066666666666666e-05,-0.0011202500000000002,0.0296445833333,0.0867569166667,-0.06528175,0.000368666666667,-5.125e-05,0.000208583333333,0.0295288333333,-0.0866481666667,-0.99580125,18.3297064167,0.521049666667,-46.1420344167,1,0,0
2018-06-11 19:56:25.094709,-0.00056499999999999996,0.00013707692307692303,-0.0010247692307692308,0.0295592307692,0.0866913076923,-0.0652850769231,9.88461538462e-05,-0.000193384615385,-5.89230769231e-05,0.0294439230769,-0.0865826923077,-0.995809538462,18.3264070769,0.523820846154,-46.1433137692,1,0,0
2018-06-11 19:56:25.344709,0.00055683333333333333,0.00022450000000000001,-0.0020467500000000004,0.029511,0.0865611666667,-0.0653074166667,-0.000253916666667,-0.00013775,0.000115083333333,0.0293963333333,-0.0864531666667,-0.995822083333,18.3223665833,0.52976175,-46.14485125,1,0,0
2018-06-11 19:56:25.594709,8.4153846153846187e-05,-0.0002405384615384615,-0.000629,0.0294432307692,0.0864949230769,-0.0652835384615,0.000258615384615,-0.000355538461538,-0.000216538461538,0.0293289230769,-0.086387,-0.995829923077,18.3198886923,0.533178692308,-46.1457942308,1,0,0
2018-06-11 19:56:25.844709,0.00013991666666666666,1.4833333333333351e-05,-0.0016893333333333333,0.0295218333333,0.08646825,-0.06528775,-0.000258083333333,-0.000224583333333,2.975e-05,0.0294074166667,-0.0863606666667,-0.995829916667,18.323817,0.53404625,-46.1442254167,1,0,0
2018-06-11 19:56:26.094709,-0.00013376923076923085,0.00013838461538461544,-0.0012561538461538463,0.0295273846154,0.086417,-0.0652783076923,0.000494230769231,-0.000190538461538,-4.87692307692e-05,0.0294130769231,-0.0863096153846,-0.995834153846,18.324088,0.536708307692,-46.1440869231,1,0,0
2018-06-11 19:56:26.344709,0.00012683333333333332,-0.00014516666666666668,-0.0019129166666666667,0.02945725,0.0865015833333,-0.0652846666667,0.000180333333333,4.24166666667e-05,-5.475e-05,0.0293429166667,-0.08639375,-0.995828833333,18.3207139167,0.53289025,-46.1454705833,1,0,0
2018-06-11 19:56:26.594709,0.00014946153846153842,6.9153846153846175e-05,-0.0011954615384615383,0.0294992307692,0.0865666153846,-0.065259,7.04615384615e-05,-0.000269153846154,0.000525,0.0293846153846,-0.0864585384615,-0.995822153846,18.3229016923,0.529463,-46.1446415385,1,0,0
2018-06-11 19:56:26.844709,-3.9083333333333326e-05,-0.00032433333333333321,-0.00093583333333333322,0.0293648333333,0.0866000833333,-0.0652405833333,-3.58333333333e-06,-0.0003075,3.96666666667e-05,0.02925075,-0.08649175,-0.995822916667,18.3165719167,0.527708416667,-46.1471745,1,0,0
2018-06-11 19:56:27.094709,0.00012492307692307691,-0.00025823076923076917,-0.00092130769230769241,0.0293200769231,0.0865914615385,-0.0652413846154,-0.000410923076923,-1.84615384615e-05,-5.76153846154e-05,0.029206,-0.0864833076923,-0.995825,18.3145426923,0.527914846154,-46.147978,1,0,0
2018-06-11 19:56:27.344709,0.00021791666666666669,0.00037791666666666665,-0.0010706666666666666,0.0293443333333,0.0865198333333,-0.0652316666667,8.13333333333e-05,-0.000125666666667,-4.88333333333e-05,0.0292304166667,-0.0864119166667,-0.9958305,18.3155825833,0.530608083333,-46.1475330833,1,0,0
2018-06-11 19:56:27.594709,0.00053807692307692313,-0.00013523076923076919,-0.0014148461538461539,0.0294080769231,0.0864862307692,-0.0652008461538,6.71538461538e-05,-0.000422769230769,0.000119615384615,0.0292939230769,-0.0863784615385,-0.995831692308,18.3184143846,0.532251384615,-46.1463905385,1,0,0
2018-06-11 19:56:27.844709,0.00068533333333333326,-0.00046791666666666661,-0.00062691666666666679,0.0293381666667,0.08646375,-0.0651519166667,0.000256916666667,-0.000386666666667,-0.00031025,0.0292243333333,-0.0863560833333,-0.9958355,18.3150623333,0.5328185,-46.147715,1,0,0
2018-06-11 19:56:28.094709,1.2923076923076937e-05,0.00015246153846153849,-0.0010593846153846152,0.0295231538462,0.0865463846154,-0.065154,6.86153846154e-05,-0.000172461538462,-0.000131769230769,0.0294083076923,-0.0864385384615,-0.995823076923,18.324246,0.528436615385,-46.1441190769,1,0,0
2018-06-11 19:56:28.344709,-0.00040908333333333329,0.00022724999999999999,-0.0008602499999999999,0.02944125,0.0865256666667,-0.06512375,-0.000196833333333,0.00014975,0.00020875,0.029327,-0.08641775,-0.99582725,18.32080825,0.52885475,-46.1454791667,1,0,0
2018-06-11 19:56:28.594709,-0.00014853846153846151,0.00028107692307692306,-0.0012563076923076922,0.029401,0.0865578461538,-0.0651036153846,-0.000184307692308,7.78461538462e-05,0.000189,0.0292868461538,-0.0864498461538,-0.995825692308,18.3190927692,0.526648,-46.1461852308,1,0,0
2018-06-11 19:56:28.844709,1.0416666666666731e-05,-0.00025833333333333334,-0.0016774166666666667,0.0293905,0.0865373333333,-0.0650641666667,6.975e-05,0.000510833333333,2.825e-05,0.0292763333333,-0.0864293333333,-0.995827666667,18.3186805833,0.527400166667,-46.1463409167,1,0,0
2018-06-11 19:56:29.094709,0.00037661538461538458,0.00023015384615384613,-0.00096815384615384613,0.0295347692308,0.0864361538462,-0.0650348461538,5.40769230769e-05,0.000331,0.000352692307692,0.0294204615385,-0.0863285384615,-0.995832153846,18.3246793846,0.531783846154,-46.1439086154,1,0,0
2018-06-11 19:56:29.344709,-0.00023458333333333331,0.00017866666666666668,-0.0011873333333333332,0.0295545,0.08641575,-0.0650170833333,0.000236333333333,-0.000365916666667,0.00022175,0.02944,-0.0863080833333,-0.9958335,18.3263753333,0.532101166667,-46.143232,1,0,0
2018-06-11 19:56:29.594709,0.00042592307692307694,1.1076923076923067e-05,-0.0015313846153846152,0.0295146153846,0.0864010769231,-0.065024,-0.000102153846154,0.000176153846154,-0.00014,0.0294005384615,-0.0862937692308,-0.995835692308,18.3239330769,0.533262076923,-46.1441876923,1,0,0
2018-06-11 19:56:29.844709,9.0583333333333317e-05,7.508333333333332e-05,-0.0016469166666666665,0.029523,0.0864496666667,-0.0650370833333,5.83333333333e-05,0.0002605,0.000298916666667,0.0294085,-0.0863419166667,-0.9958315,18.3246691667,0.531269833333,-46.1439188333,1,0,0
2018-06-11 19:56:30.094709,0.00035800000000000003,-0.00059361538461538471,-0.0015060000000000002,0.0295784615385,0.08652,-0.0650288461538,0.000137846153846,0.000181076923077,2.63076923077e-05,0.0294634615385,-0.0864120769231,-0.995823615385,18.3269659231,0.528029,-46.1430437692,1,0,0
2018-06-11 19:56:30.344709,-0.00057025000000000001,-0.00032508333333333331,-0.00080383333333333316,0.0296468333333,0.0865813333333,-0.0649881666667,6.08333333333e-05,0.000264416666667,0.000118833333333,0.0295315833333,-0.0864733333333,-0.995816333333,18.331123,0.524289083333,-46.1414354167,1,0,0
2018-06-11 19:56:30.594709,0.00017250000000000005,0.00029475000000000004,-0.0012006666666666665,0.0295573333333,0.0865116666667,-0.06496625,-0.000115916666667,-3.33333333333e-07,3.025e-05,0.0294424166667,-0.086404,-0.995824916667,18.3264935,0.52658925,-46.14324825,1,0,0
2018-06-11 19:56:30.844709,0.00012707692307692317,-0.00080938461538461557,-0.0012201538461538461,0.02955,0.0865223076923,-0.0649783846154,-0.000438846153846,-0.000469769230769,0.000106615384615,0.0294353076923,-0.0864143846154,-0.995824384615,18.3261706154,0.526847692308,-46.1433731538,1,0,0
2018-06-11 19:56:31.094709,0.00023724999999999997,-0.00015625,-0.00071066666666666663,0.0295534166667,0.086507,-0.0649761666667,-0.0002925,-7.5e-07,-6.50833333333e-05,0.0294385833333,-0.0863991666667,-0.9958255,18.3262450833,0.527355416667,-46.14333825,1,0,0
2018-06-11 19:56:31.344709,6.6692307692307672e-05,-0.00054792307692307692,-0.0017753846153846153,0.0294193076923,0.0864714615385,-0.0650212307692,-2.66153846154e-05,-0.000308615384615,-0.000223307692308,0.0293052307692,-0.0863636923077,-0.995832384615,18.3201470769,0.530250538462,-46.145727,1,0,0
2018-06-11 19:56:31.594709,0.00022975,-0.00023000000000000003,-0.00093441666666666662,0.0293656666667,0.0865555833333,-0.0650525833333,0.00014725,-4.08333333333e-06,-6.39166666667e-05,0.0292514166667,-0.0864474166667,-0.99582675,18.3172295,0.526643333333,-46.1469255833,1,0,0
2018-06-11 19:56:31.844709,-0.00020753846153846151,-0.00039215384615384617,-0.001397076923076923,0.0294384615385,0.0866653846154,-0.0650430769231,-0.000194692307692,9.74615384615e-05,9.26153846154e-05,0.0293236923077,-0.086557,-0.995815153846,18.3209543077,0.521361769231,-46.1455071538,1,0,0
2018-06-11 19:56:32.094709,-0.0001240833333333333,4.7083333333333351e-05,-0.00098216666666666656,0.0293801666667,0.0866306666667,-0.0650374166667,6.21666666667e-05,0.000171166666667,-0.0001605,0.02926575,-0.0865225,-0.995819916667,18.3181510833,0.522262583333,-46.14661075,1,0,0
2018-06-11 19:56:32.344709,-0.00025292307692307691,-1.6538461538461529e-05,-0.0012847692307692313,0.0295368461538,0.0865817692308,-0.0650547692308,-0.000191230769231,0.000668,8.1e-05,0.029422,-0.0864736923077,-0.995819615385,18.3253139231,0.525062846154,-46.143734,1,0,0
2018-06-11 19:56:32.594709,-6.7499999999999947e-05,-0.00014174999999999998,-0.0010921666666666666,0.0295493333333,0.08659825,-0.0650443333333,5.94166666667e-05,0.00017075,0.000104,0.0294341666667,-0.0864900833333,-0.995817916667,18.325919,0.524303583333,-46.1435015,1,0,0
2018-06-11 19:56:32.844709,0.00019923076923076925,-0.00042084615384615386,-0.0013259230769230768,0.0294493846154,0.0865848461538,-0.0650400769231,-2.37692307692e-05,0.000178,-7.59230769231e-05,0.0293346153846,-0.0864768461538,-0.995821923077,18.3212233846,0.524873,-46.1453606154,1,0,0
2018-06-11 19:56:33.094709,-5.7249999999999975e-05,-0.00032991666666666667,-0.0014023333333333333,0.0293845833333,0.0865638333333,-0.0650206666667,-0.000641916666667,8.26666666667e-05,5.91666666667e-06,0.02927025,-0.08645575,-0.995825666667,18.3185374167,0.52508475,-46.1464229167,1,0,0
2018-06-11 19:56:33.344709,0.00052069230769230773,0.00026184615384615379,-0.0011614615384615385,0.0293109230769,0.086343,-0.0650369230769,-0.000185384615385,-0.000313461538462,-7.16923076923e-05,0.0291976153846,-0.0862357692308,-0.995846846154,18.3144030769,0.535815307692,-46.1479420769,1,0,0
2018-06-11 19:56:33.594709,1.8833333333333308e-05,-0.00018475000000000002,-0.0012904166666666667,0.02935225,0.0863969166667,-0.0649974166667,-2.44166666667e-05,0.000256666666667,0.0001885,0.0292385833333,-0.0862895,-0.995841,18.3171216667,0.533059666667,-46.1468946667,1,0,0
2018-06-11 19:56:33.844709,0.00038107692307692311,-9.0538461538461468e-05,-0.00099407692307692305,0.0293617692308,0.0863876153846,-0.064962,-0.000106307692308,-0.000480538461538,0.000177384615385,0.029248,-0.0862800769231,-0.995841692308,18.3173871538,0.532694615385,-46.1467936154,1,0,0
2018-06-11 19:56:34.094709,0.00046433333333333331,-0.00033416666666666664,-0.0011191666666666667,0.0293625,0.08657475,-0.0649784166667,-0.000283,-0.00072,-6.80833333333e-05,0.02924825,-0.08646675,-0.99582525,18.3173246667,0.52455725,-46.1469109167,1,0,0
2018-06-11 19:56:34.344709,-9.2923076923076908e-05,0.00056738461538461532,-0.00066684615384615383,0.0293168461538,0.0865154615385,-0.0650191538462,-1.6e-05,-0.000320615384615,1.12307692308e-05,0.0292029230769,-0.0864076153846,-0.995831692308,18.3156984615,0.527266769231,-46.1475266154,1,0,0
2018-06-11 19:56:34.594709,0.00010616666666666664,-0.00023666666666666671,-0.0012770000000000001,0.02936175,0.0863729166667,-0.064976,0.000160083333333,-1.64166666667e-05,0.000193416666667,0.0292480833333,-0.0862654166667,-0.99584275,18.3173740833,0.533275583333,-46.1467923333,1,0,0
2018-06-11 19:56:34.844709,-0.00024738461538461541,-0.00019523076923076926,-0.0014864615384615385,0.0293642307692,0.0862306923077,-0.0649576153846,0.000311153846154,-0.000406,0.000179769230769,0.029251,-0.0861236923077,-0.995855,18.3181299231,0.540079615385,-46.1464130769,1,0,0
2018-06-11 19:56:35.094709,3.9333333333333332e-05,-0.00045275000000000003,-0.0014325833333333335,0.0292001666667,0.0863420833333,-0.06498975,8.56666666667e-05,-0.000813583333333,-0.000331666666667,0.0290871666667,-0.0862349166667,-0.99585025,18.3103210833,0.53548525,-46.1495651667,1,0,0
2018-06-11 19:56:35.344709,0.00016715384615384614,-0.00039153846153846151,-0.0014877692307692304,0.0291487692308,0.0864682307692,-0.065036,0.000160153846154,-0.000241153846154,-7.3e-05,0.0290358461538,-0.0863605384615,-0.995840692308,18.3073456154,0.530522384615,-46.150804,1,0,0
2018-06-11 19:56:35.594709,-0.00011950000000000002,-0.00024849999999999997,-0.00080216666666666663,0.0291316666667,0.0865588333333,-0.0650615,0.00025725,-0.000456583333333,0.0002865,0.0290185,-0.0864508333333,-0.99583325,18.3068750833,0.526490666667,-46.1510365833,1,0,0
2018-06-11 19:56:35.844709,-5.3999999999999998e-05,4.6923076923077562e-06,-0.0011546153846153846,0.0291164615385,0.0865748461538,-0.0650203076923,-7.73076923077e-05,9.21538461538e-05,-0.000164923076923,0.0290032307692,-0.0864667692308,-0.995832538462,18.3063798462,0.524869307692,-46.1512504615,1,0,0
2018-06-11 19:56:36.094709,0.00032025000000000006,-1.8999999999999991e-05,-0.0014362499999999998,0.02916075,0.08648675,-0.0650320833333,-0.00034875,0.000349083333333,-9.08333333333e-05,0.02904775,-0.0863789166667,-0.995838833333,18.3079360833,0.529059583333,-46.1505855,1,0,0
2018-06-11 19:56:36.344709,0.000531,-0.00030323076923076918,-0.0012239999999999998,0.0292938461538,0.0864920769231,-0.0650038461538,0.000238846153846,-0.000307,0.000337,0.0291802307692,-0.0863842307692,-0.995834384615,18.3138496923,0.528493076923,-46.1482462308,1,0,0
2018-06-11 19:56:36.594709,-2.033333333333332e-05,0.00038150000000000006,-0.0012496666666666665,0.0293320833333,0.0865515833333,-0.064998,0.000531333333333,-0.000614166666667,-6.61666666667e-05,0.0292180833333,-0.0864435833333,-0.995828083333,18.3162468333,0.525867416667,-46.14732425,1,0,0
2018-06-11 19:56:36.844709,7.2769230769230758e-05,-0.00030876923076923074,-0.0013363846153846154,0.0293040769231,0.0865241538462,-0.0649986923077,7.70769230769e-05,-0.000376692307692,0.000253,0.0291902307692,-0.0864163076923,-0.995831461538,18.3146230769,0.526996,-46.1479562308,1,0,0
2018-06-11 19:56:37.094709,-0.00013450000000000002,-0.00032983333333333329,-0.00093866666666666664,0.02934725,0.0865536666667,-0.0649981666667,8.75e-05,-0.000160833333333,9.89166666667e-05,0.0292331666667,-0.0864455,-0.995827666667,18.3167220833,0.5259755,-46.1471350833,1,0,0
2018-06-11 19:56:37.344709,0.00057899999999999998,-8.8461538461538235e-06,-0.00070230769230769196,0.0294429230769,0.0867051538462,-0.0649994615385,-3.76923076923e-06,0.000287461538462,0.000323615384615,0.0293280769231,-0.0865965384615,-0.995811615385,18.3206802308,0.518486230769,-46.1456492308,1,0,0
2018-06-11 19:56:37.594709,0.00054666666666666665,-0.00045958333333333333,-0.00058374999999999996,0.0296301666667,0.0867044166667,-0.0650385833333,-8.39166666667e-05,-0.0005035,-0.000255416666667,0.0295145,-0.08659575,-0.99580625,18.3294044167,0.51925725,-46.1421745,1,0,0
2018-06-11 19:56:37.844709,0.0002377692307692308,-0.0002032307692307693,-0.00079746153846153845,0.0296526153846,0.0867834615385,-0.0650245384615,-1.08461538462e-05,-0.000274384615385,0.000494076923077,0.0295366923077,-0.0866746153846,-0.995798692308,18.3306351538,0.515652692308,-46.1417266154,1,0,0
2018-06-11 19:56:38.094709,0.00012116666666666671,5.4333333333333337e-05,-0.00183975,0.02969875,0.0868103333333,-0.0650115833333,-2.58333333333e-06,0.000302333333333,8.68333333333e-05,0.0295825833333,-0.08670125,-0.995795,18.3328623333,0.513561333333,-46.1408645833,1,0,0
2018-06-11 19:56:38.344709,-0.0003856923076923077,-0.00019015384615384616,-0.00048753846153846162,0.0296173846154,0.0867681538462,-0.0649840769231,-4.15384615385e-06,-0.000183384615385,-3.61538461538e-06,0.0295016153846,-0.0866593076923,-0.995801076923,18.3297190769,0.515606538462,-46.1420911538,1,0,0
2018-06-11 19:56:38.594709,0.00042824999999999997,-0.00014833333333333335,-0.00099116666666666645,0.0294068333333,0.0867856666667,-0.06494275,-0.000187083333333,-4.35833333333e-05,0.00026425,0.0292918333333,-0.08667675,-0.99580575,18.3200749167,0.513722833333,-46.1459410833,1,0,0
2018-06-11 19:56:38.844709,-0.0001600769230769231,-0.00031523076923076925,-0.0015223076923076924,0.0292966923077,0.0867909230769,-0.0648962307692,-9.66153846154e-05,-0.000175769230769,0.000401846153846,0.0291823076923,-0.0866819230769,-0.995808461538,18.315458,0.512784384615,-46.1477845385,1,0,0
2018-06-11 19:56:39.094709,0.00012108333333333329,-0.00031791666666666665,-0.0014149166666666668,0.0292899166667,0.0866970833333,-0.0648325,-0.000181833333333,0.000230666666667,-0.000101,0.0291758333333,-0.0865885833333,-0.99581675,18.3149696667,0.515973083333,-46.14794275,1,0,0
2018-06-11 19:56:39.344709,0.00015638461538461542,-8.9076923076923057e-05,-0.00092346153846153858,0.0293471538462,0.0865669230769,-0.0648442307692,-9.61538461538e-06,0.000240846153846,6.27692307692e-05,0.0292331538462,-0.0864589230769,-0.995826461538,18.3174109231,0.522375769231,-46.1469016923,1,0,0
2018-06-11 19:56:39.594709,-5.8416666666666652e-05,-0.00040425000000000004,-0.0013435833333333331,0.0293855833333,0.08658875,-0.0648385,7.98333333333e-05,-0.000204416666667,-9.69166666667e-05,0.0292715,-0.0864805,-0.9958235,18.3199734167,0.521686,-46.1458928333,1,0,0
2018-06-11 19:56:39.844709,0.00026423076923076926,-0.00021646153846153845,-0.00080769230769230766,0.0294243076923,0.0866546923077,-0.0648416153846,7.84615384615e-05,-7.83076923077e-05,-0.000347923076923,0.0293096153846,-0.0865463076923,-0.995816461538,18.3207538462,0.518313923077,-46.1456212308,1,0,0
2018-06-11 19:56:40.094709,0.00012091666666666665,-0.00023775000000000001,-0.00088458333333333347,0.0295565,0.0865760833333,-0.0648800833333,-0.0003595,0.00033475,-0.000116916666667,0.0294415833333,-0.0864679166667,-0.995819583333,18.32647825,0.522238583333,-46.1433030833,1,0,0
2018-06-11 19:56:40.344709,-0.00012392307692307697,-4.83846153846154e-05,-0.0010715384615384614,0.0295934615385,0.0865806153846,-0.0649659230769,0.000162846153846,0.000173076923077,-0.000439384615385,0.0294782307692,-0.0864723846154,-0.995818,18.3285962308,0.523716615385,-46.1424451538,1,0,0
2018-06-11 19:56:40.594709,-0.00053149999999999996,-0.00018725,-0.00086633333333333321,0.0294891666667,0.0866085833333,-0.0649353333333,-9.63333333333e-05,0.000603083333333,5.49166666667e-05,0.0293744166667,-0.0865004166667,-0.995818666667,18.3237935833,0.52208025,-46.1443718333,1,0,0
