,Unnamed: 0,acc_x,acc_y,acc_z,vel_x,vel_y,vel_z,labelAtaxicGait,labelBradykinesia,labelFreezingOfGait,labelMuscleAtrophy,labelMyopathicGait,labelNoPathologicalGait,labelSittingWithTremor
0,1970-01-01 00:00:00.000,-0.1482666,0.06997676,0.98619188,1.6198,-6.3112,-0.9184,0,0,1,0,0,0,0
1,1970-01-01 00:00:00.500,-0.1495354,0.0715408,0.98646516,1.5246,-6.0522,-0.826,0,0,1,0,0,0,0
2,1970-01-01 00:00:01.000,-0.02804292,0.1779858,1.00100756,0.8722,1.218,15.0584,0,0,1,0,0,0,0
3,1970-01-01 00:00:01.500,-0.22611968,0.00424316,0.97956728,-9.8658,8.1914,14.686,0,0,1,0,0,0,0
4,1970-01-01 00:00:02.000,-0.24752092,0.03995256,0.96843844,8.596,-16.1056,-5.0022,0,0,1,0,0,0,0
5,1970-01-01 00:00:02.500,-0.18309516,0.0890966,0.98098004,3.3194,-9.1336,0.0056,0,0,1,0,0,0,0
6,1970-01-01 00:00:03.000,-0.20396936,0.08518772,0.97246688,-0.2114,-7.1078,-0.7238,0,0,1,0,0,0,0
7,1970-01-01 00:00:03.500,-0.1815726,0.07818492,0.98012848,-2.8224,-10.731,6.6948,0,0,1,0,0,0,0
8,1970-01-01 00:00:04.000,-0.17669016,0.07025248,0.97912808,2.9162,-6.5646,-5.0624,0,0,1,0,0,0,0
9,1970-01-01 00:00:04.500,-0.18014276,0.07037692,0.97984056,0.7266,-5.712,6.3756,0,0,1,0,0,0,0
10,1970-01-01 00:00:05.000,-0.16861132,0.08817672,0.9800748,3.4818,-6.671,0.4312,0,0,1,0,0,0,0
11,1970-01-01 00:00:05.500,-0.04686508,0.12729724,1.01472036,-7.5096,15.3454,34.3042,0,0,1,0,0,0,0
12,1970-01-01 00:00:06.000,-0.1085312,0.11462876,1.02073008,3.4734,2.3842,-22.0612,0,0,1,0,0,0,0
13,1970-01-01 00:00:06.500,-0.28960848,0.127124,0.94012468,5.2668,-14.399,-14.7532,0,0,1,0,0,0,0
14,1970-01-01 00:00:07.000,-0.27321656,0.0291702,0.96094764,-4.3736,-23.9358,4.5878,0,0,1,0,0,0,0
15,1970-01-01 00:00:07.500,-0.17209808,0.07317804,0.982222,4.5766,-5.3606,-8.8368,0,0,1,0,0,0,0
16,1970-01-01 00:00:08.000,-0.17759296,0.07970992,0.9808068,-2.3716,-4.949,4.6284,0,0,1,0,0,0,0
17,1970-01-01 00:00:08.500,-0.19027852,0.07230696,0.97245712,3.9102,-9.177,2.2246,0,0,1,0,0,0,0
18,1970-01-01 00:00:09.000,-0.18193616,0.0801418,0.978318,-0.3892,-5.6812,1.9516,0,0,1,0,0,0,0
19,1970-01-01 00:00:09.500,0.04137508,0.13403896,1.04435904,-2.0132,8.7486,12.9598,0,0,1,0,0,0,0
20,1970-01-01 00:00:10.000,-0.21655976,0.09084364,1.0084398,-16.4136,30.3968,-5.7946,0,0,1,0,0,0,0
21,1970-01-01 00:00:10.500,-0.46942184,0.05129856,0.93941464,17.1864,-52.7156,22.9656,0,0,1,0,0,0,0
22,1970-01-01 00:00:11.000,-0.17782232,0.0829112,0.9688752,-0.1386,-3.9074,-19.7302,0,0,1,0,0,0,0
23,1970-01-01 00:00:11.500,-0.18682592,0.0709552,0.97372592,3.1766,-6.4568,-11.739,0,0,1,0,0,0,0
24,1970-01-01 00:00:12.000,-0.18591824,0.10748444,0.97376984,7.5012,-9.6138,-3.8486,0,0,1,0,0,0,0
25,1970-01-01 00:00:12.500,-0.16279924,0.09746824,0.98228788,-0.602,-4.207,-1.3706,0,0,1,0,0,0,0
26,1970-01-01 00:00:13.000,-0.10865564,0.1426302,1.02588824,-8.7332,8.2236,45.171,0,0,1,0,0,0,0
27,1970-01-01 00:00:13.500,-0.3062566,0.12819516,0.94949184,0.0322,-3.8122,-7.4564,0,0,1,0,0,0,0
28,1970-01-01 00:00:14.000,-0.1888072,0.10793828,0.9873948,0.5922,-4.8132,-6.286,0,0,1,0,0,0,0
29,1970-01-01 00:00:14.500,-0.21938772,0.13577624,0.96335348,4.4114,-0.504,-8.4448,0,0,1,0,0,0,0
30,1970-01-01 00:00:15.000,-0.20741952,0.0845216,0.97212284,4.4632,-18.1062,-19.908,0,0,1,0,0,0,0
31,1970-01-01 00:00:15.500,-0.18249736,0.09539912,0.98201704,0.098,-3.563,3.4034,0,0,1,0,0,0,0
32,1970-01-01 00:00:16.000,-0.16623964,0.10491756,0.9800382,-0.5978,-3.8724,-1.3076,0,0,1,0,0,0,0
33,1970-01-01 00:00:16.500,-0.17477964,0.09427916,0.9777812,-0.0854,-10.9158,-8.0682,0,0,1,0,0,0,0
34,1970-01-01 00:00:17.000,-0.18064784,0.08959924,0.98267096,1.7682,7.1708,-10.7884,0,0,1,0,0,0,0
35,1970-01-01 00:00:17.500,-0.07834596,0.12189996,1.01499364,-7.497,24.493,-8.9012,0,0,1,0,0,0,0
36,1970-01-01 00:00:18.000,-0.14891076,0.09239304,0.98202436,-4.0628,-1.8046,6.4302,0,0,1,0,0,0,0
37,1970-01-01 00:00:18.500,-0.191662,0.0901336,0.97529728,5.5594,-3.6512,-6.0032,0,0,1,0,0,0,0
38,1970-01-01 00:00:19.000,0.06785152,0.10963164,1.01946128,-5.138,1.4714,9.968,0,0,1,0,0,0,0
39,1970-01-01 00:00:19.500,-0.42005332,0.06147824,0.9169886,15.7108,15.8004,-9.667,0,0,1,0,0,0,0
40,1970-01-01 00:00:20.000,-0.20191732,0.10325348,1.00952072,-8.484,-19.2066,6.3084,0,0,1,0,0,0,0
41,1970-01-01 00:00:20.500,-0.23773896,0.08806448,0.92216872,6.937,-11.4142,-9.0454,0,0,1,0,0,0,0
42,1970-01-01 00:00:21.000,-0.15622588,0.09799772,0.98062624,1.1004,-16.7608,0.672,0,0,1,0,0,0,0
43,1970-01-01 00:00:21.500,-0.18039652,0.09755364,0.97754696,-0.0238,-5.2486,-2.0538,0,0,1,0,0,0,0
44,1970-01-01 00:00:22.000,-0.26568184,0.12562828,1.0018274,-9.6418,-0.6538,12.7666,0,0,1,0,0,0,0
45,1970-01-01 00:00:22.500,-0.16181836,0.09009944,0.9857356,1.1858,-1.4322,6.4316,0,0,1,0,0,0,0
46,1970-01-01 00:00:23.000,-0.000976,0.14079044,1.01969552,0.7014,1.701,-5.712,0,0,1,0,0,0,0
47,1970-01-01 00:00:23.500,-0.38335816,0.04959788,0.94015884,-4.158,1.1088,3.1556,0,0,1,0,0,0,0
48,1970-01-01 00:00:24.000,-0.21276068,0.08430688,0.97044412,4.8216,-18.368,-9.3758,0,0,1,0,0,0,0
49,1970-01-01 00:00:24.500,-0.20443784,0.07744316,0.97604392,5.3592,6.2286,16.555,0,0,1,0,0,0,0
50,1970-01-01 00:00:25.000,-0.22562924,0.09509656,0.9693754,10.2158,4.032,-23.7958,0,0,1,0,0,0,0
51,1970-01-01 00:00:25.500,-0.18417852,0.13970952,0.97285972,-14.3696,-9.8028,-3.3908,0,0,1,0,0,0,0
52,1970-01-01 00:00:26.000,-0.36057344,0.059109,0.98905156,1.7696,-24.4216,14.959,0,0,1,0,0,0,0
53,1970-01-01 00:00:26.500,-0.246745,0.08917468,1.00743696,2.7202,-6.8362,7.322,0,0,1,0,0,0,0
54,1970-01-01 00:00:27.000,-0.13859688,0.08223044,0.99271888,-1.3818,10.9942,-5.2864,0,0,1,0,0,0,0
55,1970-01-01 00:00:27.500,-0.31219556,0.10790168,0.93088196,4.0908,18.5206,-4.6438,0,0,1,0,0,0,0
56,1970-01-01 00:00:28.000,-0.20119752,0.11777392,0.98718984,3.5574,-29.988,-2.8014,0,0,1,0,0,0,0
57,1970-01-01 00:00:28.500,-0.22109572,0.10140884,0.97223752,6.4358,3.9802,-21.133,0,0,1,0,0,0,0
58,1970-01-01 00:00:29.000,-0.22161788,0.1054202,0.96806024,0.7084,-11.151,1.4896,0,0,1,0,0,0,0
59,1970-01-01 00:00:29.500,-0.08655168,0.1412394,1.00588024,-3.7072,16.8084,9.1182,0,0,1,0,0,0,0
60,1970-01-01 00:00:30.000,-0.385276,0.15072612,0.93645492,3.5308,-43.9936,23.2358,0,0,1,0,0,0,0
61,1970-01-01 00:00:30.500,-0.2373022,0.12295892,0.97140304,2.4136,-4.5136,-25.4156,0,0,1,0,0,0,0
62,1970-01-01 00:00:31.000,-0.24229444,0.11701264,0.96299236,1.8354,-8.5722,0.3458,0,0,1,0,0,0,0
63,1970-01-01 00:00:31.500,-0.23604804,0.10496148,0.97151528,-3.1108,3.7324,3.2732,0,0,1,0,0,0,0
64,1970-01-01 00:00:32.000,-0.14390632,0.08967488,0.99447568,-3.059,7.1624,-11.8076,0,0,1,0,0,0,0
65,1970-01-01 00:00:32.500,-0.4889882,0.07939516,0.91812564,-3.1598,-21.7896,0.203,0,0,1,0,0,0,0
66,1970-01-01 00:00:33.000,-0.02091568,0.14717104,1.02665684,0.6608,-12.2794,1.2964,0,0,1,0,0,0,0
67,1970-01-01 00:00:33.500,-0.33840604,0.0827038,0.98791208,-10.1612,17.4888,-7.0728,0,0,1,0,0,0,0
68,1970-01-01 00:00:34.000,-0.32251188,0.08140084,0.9477326,14.0742,-32.1664,4.9308,0,0,1,0,0,0,0
69,1970-01-01 00:00:34.500,-0.22739336,0.10659384,0.9647882,2.751,-5.936,-8.792,0,0,1,0,0,0,0
70,1970-01-01 00:00:35.000,-0.02198928,0.17810048,1.03225176,0.042,7.0028,-17.521,0,0,1,0,0,0,0
71,1970-01-01 00:00:35.500,-0.39047808,0.04215344,0.92329112,2.016,-20.5646,8.47,0,0,1,0,0,0,0
72,1970-01-01 00:00:36.000,-0.0955504,0.02793068,1.00089532,13.8782,-3.5812,-75.6686,0,0,1,0,0,0,0
73,1970-01-01 00:00:36.500,-0.28487732,0.09994972,0.95444748,14.882,-19.7806,-80.1612,0,0,1,0,0,0,0
74,1970-01-01 00:00:37.000,-0.19095196,0.07747,0.97873036,3.6064,-8.7934,-26.4586,0,0,1,0,0,0,0
75,1970-01-01 00:00:37.500,-0.18148476,0.06865428,0.98027488,0.455,-6.8768,-17.0492,0,0,1,0,0,0,0
76,1970-01-01 00:00:38.000,-0.20583596,0.06274216,0.98742896,2.0538,1.6926,-4.0712,0,0,1,0,0,0,0
77,1970-01-01 00:00:38.500,-0.20203444,0.07377096,0.97031968,0.5334,-4.4716,-0.266,0,0,1,0,0,0,0
78,1970-01-01 00:00:39.000,-0.14852768,0.10448568,1.00771024,-8.9418,-16.2456,29.9068,0,0,1,0,0,0,0
79,1970-01-01 00:00:39.500,-0.05391912,0.0678076,1.006744,7.56,-2.0342,-9.3828,0,0,1,0,0,0,0
80,1970-01-01 00:00:40.000,-0.315126,0.12050184,0.96642544,5.2556,-5.6378,-10.3922,0,0,1,0,0,0,0
81,1970-01-01 00:00:40.500,-0.2287012,0.11329896,0.96560316,0.5698,-9.1686,6.3224,0,0,1,0,0,0,0
82,1970-01-01 00:00:41.000,-0.21131376,0.07629148,0.97139084,1.4854,-9.394,-12.6882,0,0,1,0,0,0,0
83,1970-01-01 00:00:41.500,-0.19572216,0.09082168,0.97335016,-1.393,-5.0134,7.8932,0,0,1,0,0,0,0
84,1970-01-01 00:00:42.000,-0.18611832,0.08739104,0.98002356,6.769,8.7458,-14.203,0,0,1,0,0,0,0
85,1970-01-01 00:00:42.500,-0.22648568,0.10961456,0.96076708,-4.4352,-14.889,9.919,0,0,1,0,0,0,0
86,1970-01-01 00:00:43.000,-0.2059604,0.07890228,0.97100288,1.8732,-3.2452,-12.2178,0,0,1,0,0,0,0
87,1970-01-01 00:00:43.500,-0.13662536,0.1059204,0.99490268,6.321,17.122,-9.4794,0,0,1,0,0,0,0
88,1970-01-01 00:00:44.000,-0.27913356,0.10990004,0.9724742,-5.0148,-34.5492,14.4032,0,0,1,0,0,0,0
89,1970-01-01 00:00:44.500,-0.25867904,0.11743964,0.98233668,-3.962,-3.6666,15.33,0,0,1,0,0,0,0
90,1970-01-01 00:00:45.000,-0.25151276,0.07624268,0.97103704,-0.805,3.9018,-4.6676,0,0,1,0,0,0,0
91,1970-01-01 00:00:45.500,-0.22539256,0.07647448,0.96757712,5.6406,-1.2684,-14.5992,0,0,1,0,0,0,0
92,1970-01-01 00:00:46.000,-0.25591452,0.09003112,0.91932856,5.9318,27.8348,7.0644,0,0,1,0,0,0,0
93,1970-01-01 00:00:46.500,-0.21491032,0.12441804,0.99150376,-5.2388,-31.0884,1.428,0,0,1,0,0,0,0
94,1970-01-01 00:00:47.000,-0.25659528,0.10879716,0.9525028,-0.1176,-22.3328,-1.813,0,0,1,0,0,0,0
95,1970-01-01 00:00:47.500,-0.222223,0.10596432,0.96998296,6.0508,-5.9416,-22.2236,0,0,1,0,0,0,0
96,1970-01-01 00:00:48.000,-0.19986772,0.12893448,0.97441888,-1.6926,3.8626,-2.9302,0,0,1,0,0,0,0
97,1970-01-01 00:00:48.500,-0.36201304,0.1354566,0.9914818,-13.846,3.4888,28.3598,0,0,1,0,0,0,0
98,1970-01-01 00:00:49.000,-0.29562308,0.08935768,0.96636444,6.377,-13.3714,-0.798,0,0,1,0,0,0,0
99,1970-01-01 00:00:49.500,-0.25968432,0.10868004,0.97280848,7.2254,1.0864,-8.4154,0,0,1,0,0,0,0
100,1970-01-01 00:00:50.000,-0.12976896,0.16060568,1.00663908,0.9716,21.9366,-12.3102,0,0,1,0,0,0,0
101,1970-01-01 00:00:50.500,-0.4196678,0.08987008,0.92464532,-2.03,-52.8794,32.8944,0,0,1,0,0,0,0
102,1970-01-01 00:00:51.000,-0.27151588,0.152073,0.95371792,-6.5044,-0.9268,4.2616,0,0,1,0,0,0,0
103,1970-01-01 00:00:51.500,-0.12547944,0.1247938,1.01461788,3.8766,31.0646,-19.8996,0,0,1,0,0,0,0
104,1970-01-01 00:00:52.000,-0.36400164,0.10365608,0.90865356,-2.2764,-39.739,8.5652,0,0,1,0,0,0,0
105,1970-01-01 00:00:52.500,-0.25589744,0.11392604,0.95652636,7.1736,-5.453,-24.3096,0,0,1,0,0,0,0
106,1970-01-01 00:00:53.000,-0.28570448,0.11354784,0.94146912,-1.8914,2.9316,5.257,0,0,1,0,0,0,0
107,1970-01-01 00:00:53.500,-0.26723368,0.11443844,0.9324948,2.9134,-10.073,-6.6864,0,0,1,0,0,0,0
108,1970-01-01 00:00:54.000,-0.21158948,0.08999208,0.96746488,22.8732,-13.678,-96.964,0,0,1,0,0,0,0
109,1970-01-01 00:00:54.500,-0.18598412,0.10397084,0.98148512,4.48,4.7166,-6.8796,0,0,1,0,0,0,0
110,1970-01-01 00:00:55.000,-0.23673612,0.12326636,0.95756824,8.2726,-8.2712,-10.99,0,0,1,0,0,0,0
111,1970-01-01 00:00:55.500,0.14020728,0.24302156,1.06556508,16.534,18.6732,-40.5048,0,0,1,0,0,0,0
112,1970-01-01 00:00:56.000,-0.34482568,0.06896416,0.93808484,-16.681,-11.613,3.9942,0,0,1,0,0,0,0
113,1970-01-01 00:00:56.500,-0.37234888,0.11254256,0.93433944,3.0184,-31.073,17.8486,0,0,1,0,0,0,0
114,1970-01-01 00:00:57.000,-0.23146328,0.1261114,0.9664108,1.0514,1.4308,-0.5614,0,0,1,0,0,0,0
115,1970-01-01 00:00:57.500,-0.29089924,0.1384456,0.93987824,2.8616,-2.5452,-6.2202,0,0,1,0,0,0,0
116,1970-01-01 00:00:58.000,-0.2968016,0.12500852,0.94027352,7.7042,23.338,-6.2818,0,0,1,0,0,0,0
117,1970-01-01 00:00:58.500,-0.3233122,0.16981424,0.92437204,1.0766,-8.0668,0.1946,0,0,1,0,0,0,0
118,1970-01-01 00:00:59.000,-0.03155896,0.2210274,1.04524964,5.3494,24.6498,3.563,0,0,1,0,0,0,0
119,1970-01-01 00:00:59.500,-0.58109332,0.09229788,0.87357368,-21.0448,-56.0294,10.8192,0,0,1,0,0,0,0
120,1970-01-01 00:01:00.000,-0.35365848,0.16545396,0.94037356,-0.3206,0.903,4.2784,0,0,1,0,0,0,0
121,1970-01-01 00:01:00.500,-0.33000268,0.15600872,0.91562708,4.704,11.7096,-4.179,0,0,1,0,0,0,0
122,1970-01-01 00:01:01.000,-0.35235796,0.15865368,0.92160508,0.0658,1.2082,6.1922,0,0,1,0,0,0,0
123,1970-01-01 00:01:01.500,-0.42749776,0.16944092,0.88608356,14.9492,13.7634,-14.9646,0,0,1,0,0,0,0
124,1970-01-01 00:01:02.000,-0.48339816,0.17725136,0.81282988,19.9626,14.6342,-28.623,0,0,1,0,0,0,0
125,1970-01-01 00:01:02.500,-0.12277836,0.20077296,1.07262888,-18.3946,5.6126,16.1462,0,0,1,0,0,0,0
126,1970-01-01 00:01:03.000,-0.64527508,0.18147988,0.80616136,-8.6212,-67.9406,21.7182,0,0,1,0,0,0,0
127,1970-01-01 00:01:03.500,-0.38586648,0.174399,0.93812388,-3.045,-12.3536,-12.208,0,0,1,0,0,0,0
128,1970-01-01 00:01:04.000,-0.38631788,0.15431292,0.919087,1.7136,-1.6142,0.791,0,0,1,0,0,0,0
129,1970-01-01 00:01:04.500,-0.36944528,0.15418116,0.90974912,2.254,5.9724,-1.8466,0,0,1,0,0,0,0
130,1970-01-01 00:01:05.000,-0.475373,0.11399192,0.866444,3.1878,4.375,-26.173,0,0,1,0,0,0,0
131,1970-01-01 00:01:05.500,-0.35751368,0.12447416,0.93849964,21.686,-8.5638,-11.0838,0,0,1,0,0,0,0
132,1970-01-01 00:01:06.000,-0.41594924,0.1531588,0.86739804,-10.3446,-35.9506,14.3738,0,0,1,0,0,0,0
133,1970-01-01 00:01:06.500,-0.17018512,0.24934848,0.89439908,-8.4714,2.9302,16.9708,0,0,1,0,0,0,0
134,1970-01-01 00:01:07.000,-0.31509184,0.13814548,0.95014332,5.0526,-0.8834,2.506,0,0,1,0,0,0,0
135,1970-01-01 00:01:07.500,-0.27755732,0.135908,0.97041484,5.8142,-8.8998,-13.6682,0,0,1,0,0,0,0
136,1970-01-01 00:01:08.000,-0.53741488,0.1691774,0.84057268,8.4812,-10.528,-8.2726,0,0,1,0,0,0,0
137,1970-01-01 00:01:08.500,-0.4186796,0.15980536,0.873947,6.5744,36.9222,-6.0634,0,0,1,0,0,0,0
138,1970-01-01 00:01:09.000,-0.44279168,0.16255768,0.90912204,-7.7196,-52.6106,11.6774,0,0,1,0,0,0,0
139,1970-01-01 00:01:09.500,-0.15072612,0.26253424,1.02094236,-6.671,3.5,10.094,0,0,1,0,0,0,0
140,1970-01-01 00:01:10.000,-0.53603628,0.1092632,0.88691804,-3.4132,43.2586,-14.4424,0,0,1,0,0,0,0
141,1970-01-01 00:01:10.500,-0.49211384,0.14941828,0.85220416,-2.2288,-48.6976,19.9696,0,0,1,0,0,0,0
142,1970-01-01 00:01:11.000,-0.36687352,0.17928876,0.89749544,-5.166,-8.1004,4.9112,0,0,1,0,0,0,0
143,1970-01-01 00:01:11.500,-0.44568796,0.09391316,0.87060176,2.5816,6.8264,-15.8942,0,0,1,0,0,0,0
144,1970-01-01 00:01:12.000,-0.25521912,0.11619524,0.95791228,40.929,-7.1106,-142.4122,0,0,1,0,0,0,0
145,1970-01-01 00:01:12.500,-0.206668,0.15868052,0.96382928,13.8376,-12.1464,-56.1848,0,0,1,0,0,0,0
146,1970-01-01 00:01:13.000,-0.31003616,0.12086052,0.94146424,4.5822,-18.0614,1.3356,0,0,1,0,0,0,0
147,1970-01-01 00:01:13.500,-0.22861824,0.1412394,0.96028152,6.1656,-5.026,-38.6246,0,0,1,0,0,0,0
148,1970-01-01 00:01:14.000,-0.30836476,0.14336708,0.92664612,-1.9236,5.3284,27.23,0,0,1,0,0,0,0
149,1970-01-01 00:01:14.500,-0.29343928,0.14968668,0.94235484,0.5334,-13.2762,-9.4766,0,0,1,0,0,0,0
150,1970-01-01 00:01:15.000,-0.19864528,0.16683256,0.9970206,2.9414,-5.6434,-19.2318,0,0,1,0,0,0,0
151,1970-01-01 00:01:15.500,-0.3799568,0.16849176,0.94620272,-6.587,-13.3728,23.9414,0,0,1,0,0,0,0
152,1970-01-01 00:01:16.000,-0.25040744,0.153354,0.96084028,-2.8014,31.6624,-6.1936,0,0,1,0,0,0,0
153,1970-01-01 00:01:16.500,-0.4796674,0.14126868,0.83434824,12.4754,-1.8676,3.7828,0,0,1,0,0,0,0
154,1970-01-01 00:01:17.000,-0.41694232,0.1667618,0.87928084,2.5368,-20.9188,-11.8048,0,0,1,0,0,0,0
155,1970-01-01 00:01:17.500,-0.44155216,0.14867652,0.87678228,9.758,7.2002,-22.162,0,0,1,0,0,0,0
156,1970-01-01 00:01:18.000,-0.42938388,0.17418428,0.88413644,-10.787,28.5516,23.9526,0,0,1,0,0,0,0
157,1970-01-01 00:01:18.500,-0.50720768,0.22867192,0.86468232,6.076,-50.1886,15.9208,0,0,1,0,0,0,0
158,1970-01-01 00:01:19.000,-0.1410686,0.28043164,0.97604636,-0.3752,-10.318,-11.7586,0,0,1,0,0,0,0
159,1970-01-01 00:01:19.500,-0.47974792,0.04931728,0.9053376,-9.2176,-23.5844,-13.8642,0,0,1,0,0,0,0
160,1970-01-01 00:01:20.000,-0.2847114,0.14588028,0.94641256,-2.6474,-7.5656,19.9374,0,0,1,0,0,0,0
161,1970-01-01 00:01:20.500,-0.31507232,0.15196564,0.92231024,13.4834,43.6072,-22.33,0,0,1,0,0,0,0
162,1970-01-01 00:01:21.000,-0.5043114,0.10746736,0.87158264,5.6812,15.1046,-1.5694,0,0,1,0,0,0,0
163,1970-01-01 00:01:21.500,-0.52934092,0.14593884,0.80580512,-6.2286,-40.9472,-0.2576,0,0,1,0,0,0,0
164,1970-01-01 00:01:22.000,-0.34792692,0.15776552,0.92142696,-2.0958,-7.5614,7.9954,0,0,1,0,0,0,0
165,1970-01-01 00:01:22.500,-0.43863636,0.14316944,0.8838534,1.498,23.8154,-0.6076,0,0,1,0,0,0,0
166,1970-01-01 00:01:23.000,-0.44657124,0.23116804,0.91832084,-9.5928,-53.6774,18.8076,0,0,1,0,0,0,0
167,1970-01-01 00:01:23.500,-0.39653172,0.17699272,0.91628832,5.341,-3.4734,-7.4494,0,0,1,0,0,0,0
168,1970-01-01 00:01:24.000,-0.32509096,0.1778028,0.95110956,25.7096,46.242,-12.1422,0,0,1,0,0,0,0
169,1970-01-01 00:01:24.500,-0.46951456,0.13894824,0.82424664,-22.4112,-32.2742,24.6078,0,0,1,0,0,0,0
170,1970-01-01 00:01:25.000,-0.4814974,0.18523504,0.83433848,5.796,7.56,-21.21,0,0,1,0,0,0,0
171,1970-01-01 00:01:25.500,-0.53641936,0.17268124,0.8065786,24.3418,-10.4244,-19.2528,0,0,1,0,0,0,0
172,1970-01-01 00:01:26.000,-0.37484012,0.29950756,0.92221996,-3.563,11.8524,0.028,0,0,1,0,0,0,0
173,1970-01-01 00:01:26.500,-0.64782732,0.1747894,0.79781656,-22.8424,-25.613,49.8554,0,0,1,0,0,0,0
174,1970-01-01 00:01:27.000,-0.36338676,0.24897028,0.9130236,10.143,-9.6544,-5.2332,0,0,1,0,0,0,0
175,1970-01-01 00:01:27.500,-0.379298,0.22403592,0.86357944,13.8698,26.9402,-32.3582,0,0,1,0,0,0,0
176,1970-01-01 00:01:28.000,-0.4232668,0.1839394,0.88080584,-12.4698,-13.7116,5.6322,0,0,1,0,0,0,0
177,1970-01-01 00:01:28.500,-0.4447144,0.18135544,0.861869,-0.7658,-28.1708,-14.8694,0,0,1,0,0,0,0
178,1970-01-01 00:01:29.000,-0.39982572,0.1765218,0.87734104,-8.498,0.077,22.5582,0,0,1,0,0,0,0
179,1970-01-01 00:01:29.500,-0.42931556,0.18193372,0.86487996,27.3308,30.0552,-38.997,0,0,1,0,0,0,0
180,1970-01-01 00:01:30.000,-0.25772744,0.0486414,0.9660814,38.7898,-11.0516,-143.192,0,0,1,0,0,0,0
181,1970-01-01 00:01:30.500,-0.19449972,0.15010392,0.96918752,8.267,1.9096,-12.4782,0,0,1,0,0,0,0
182,1970-01-01 00:01:31.000,-0.29924892,0.14808848,0.94263056,6.685,-12.3424,-11.3834,0,0,1,0,0,0,0
183,1970-01-01 00:01:31.500,-0.2972774,0.16242592,0.93039396,10.5042,-23.7902,-25.9322,0,0,1,0,0,0,0
184,1970-01-01 00:01:32.000,-0.19664692,0.14818364,0.93684776,4.935,-1.9558,-10.6596,0,0,1,0,0,0,0
185,1970-01-01 00:01:32.500,-0.23050924,0.13964608,0.9676552,5.5286,26.8898,13.5688,0,0,1,0,0,0,0
186,1970-01-01 00:01:33.000,-0.35170648,0.18532288,0.89092452,-3.9942,-21.6104,7.2576,0,0,1,0,0,0,0
187,1970-01-01 00:01:33.500,-0.35630832,0.17743924,0.90580364,2.1854,14.0462,-0.588,0,0,1,0,0,0,0
188,1970-01-01 00:01:34.000,-0.40253656,0.21699896,0.95572116,-14.9352,-44.0076,5.6952,0,0,1,0,0,0,0
189,1970-01-01 00:01:34.500,-0.3083672,0.14796648,0.94424828,5.25,6.5688,4.0754,0,0,1,0,0,0,0
190,1970-01-01 00:01:35.000,-0.31015572,0.15604288,0.90952708,3.5924,37.87,9.3632,0,0,1,0,0,0,0
191,1970-01-01 00:01:35.500,-0.25088568,0.1782176,0.94885012,-6.8026,-55.1474,8.4966,0,0,1,0,0,0,0
192,1970-01-01 00:01:36.000,-0.23886624,0.19660056,0.94390424,20.1054,-11.9518,-32.8706,0,0,1,0,0,0,0
193,1970-01-01 00:01:36.500,-0.19623212,0.18228752,0.95853448,-12.3298,-16.3086,-16.394,0,0,1,0,0,0,0
194,1970-01-01 00:01:37.000,-0.16789152,0.16302616,0.9536618,-0.1232,-2.0062,26.3508,0,0,1,0,0,0,0
195,1970-01-01 00:01:37.500,-0.18101872,0.20238824,0.96225548,1.6954,-11.4702,-15.4546,0,0,1,0,0,0,0
196,1970-01-01 00:01:38.000,-0.35570076,0.21709656,0.96811148,-28.4158,4.739,29.7024,0,0,1,0,0,0,0
197,1970-01-01 00:01:38.500,-0.18706504,0.13574452,0.97873768,0.8316,-13.6122,-20.2328,0,0,1,0,0,0,0
198,1970-01-01 00:01:39.000,-0.08544148,0.16959952,1.01697004,2.863,2.4752,3.9914,0,0,1,0,0,0,0
199,1970-01-01 00:01:39.500,-0.3871792,0.06272264,0.9032026,10.0744,-5.1212,-8.9726,0,0,1,0,0,0,0
200,1970-01-01 00:01:40.000,-0.17058528,0.14619016,0.98081168,0.6524,-11.634,1.2446,0,0,1,0,0,0,0
201,1970-01-01 00:01:40.500,-0.17954496,0.1345172,0.9572852,-0.8708,-7.392,-2.6418,0,0,1,0,0,0,0
202,1970-01-01 00:01:41.000,-0.18628668,0.11201796,0.95350564,-2.4346,-26.3032,-24.038,0,0,1,0,0,0,0
203,1970-01-01 00:01:41.500,0.02170136,0.19145704,1.06062896,-0.6048,17.8164,71.8368,0,0,1,0,0,0,0
204,1970-01-01 00:01:42.000,-0.30801828,0.12968844,0.89803956,-8.267,-5.4348,-4.1706,0,0,1,0,0,0,0
205,1970-01-01 00:01:42.500,-0.14780056,0.1532686,1.01195096,9.6292,2.296,-24.2564,0,0,1,0,0,0,0
206,1970-01-01 00:01:43.000,-0.37837812,0.07246556,0.9224054,3.1374,-5.8044,-3.626,0,0,1,0,0,0,0
207,1970-01-01 00:01:43.500,-0.25015124,0.12899548,0.95294688,0.9478,2.471,18.634,0,0,1,0,0,0,0
208,1970-01-01 00:01:44.000,-0.23023108,0.1494988,0.9588956,4.8846,-21.3472,-35.1974,0,0,1,0,0,0,0
209,1970-01-01 00:01:44.500,-0.2106452,0.11778368,0.9688386,-0.4046,1.9068,4.7558,0,0,1,0,0,0,0
210,1970-01-01 00:01:45.000,-0.19736672,0.12101424,0.96475648,-2.1322,-24.5378,2.4864,0,0,1,0,0,0,0
211,1970-01-01 00:01:45.500,-0.21560572,0.12692148,0.96285328,3.9046,-11.8902,-23.7328,0,0,1,0,0,0,0
212,1970-01-01 00:01:46.000,-0.2138538,0.11429936,0.96515176,2.94,3.8612,-3.038,0,0,1,0,0,0,0
213,1970-01-01 00:01:46.500,-0.26260256,0.1278926,0.96263124,-0.574,-2.2708,8.0584,0,0,1,0,0,0,0
214,1970-01-01 00:01:47.000,-0.26356636,0.19117888,1.00376964,1.1158,-7.7126,10.535,0,0,1,0,0,0,0
215,1970-01-01 00:01:47.500,-0.2356552,0.12731188,0.964532,9.4248,19.7176,-11.8566,0,0,1,0,0,0,0
216,1970-01-01 00:01:48.000,-0.17714156,0.02822104,0.98934924,9.9834,-2.6488,-61.9626,0,0,1,0,0,0,0
217,1970-01-01 00:01:48.500,-0.26287828,0.16936772,0.94447764,25.2028,-21.8568,-95.1678,0,0,1,0,0,0,0
218,1970-01-01 00:01:49.000,-0.19721544,0.11247424,0.9782814,3.9312,-0.1386,-5.7134,0,0,1,0,0,0,0
219,1970-01-01 00:01:49.500,-0.2898964,0.12766324,0.93124064,24.7408,-19.5552,-76.9482,0,0,1,0,0,0,0
220,1970-01-01 00:01:50.000,-0.1437282,0.10454424,0.98864164,7.9114,-0.6062,-21.0798,0,0,1,0,0,0,0
221,1970-01-01 00:01:50.500,-0.30084224,0.17510904,0.94931128,-22.239,-22.8942,18.6998,0,0,1,0,0,0,0
222,1970-01-01 00:01:51.000,-0.2387174,0.1130818,0.98274172,1.624,5.2332,16.1154,0,0,1,0,0,0,0
223,1970-01-01 00:01:51.500,-0.1795596,0.10866052,0.97550956,-4.382,11.4114,14.0602,0,0,1,0,0,0,0
224,1970-01-01 00:01:52.000,-0.17634124,0.09299572,0.96432948,8.0024,-16.2596,-28.3122,0,0,1,0,0,0,0
225,1970-01-01 00:01:52.500,-0.18128468,0.107665,0.9752558,-2.3058,-10.2746,5.9514,0,0,1,0,0,0,0
226,1970-01-01 00:01:53.000,-0.20760496,0.1235982,0.97915736,0.4004,-2.4472,-77.2702,0,0,1,0,0,0,0
227,1970-01-01 00:01:53.500,-0.18913904,0.14221784,0.99511008,-12.033,-18.1594,71.9432,0,0,1,0,0,0,0
228,1970-01-01 00:01:54.000,-0.19641268,0.09944708,0.9737796,1.925,-4.4898,-4.963,0,0,1,0,0,0,0
229,1970-01-01 00:01:54.500,-0.17977432,0.100833,0.97328916,2.24,-6.0242,0.0378,0,0,1,0,0,0,0
230,1970-01-01 00:01:55.000,-0.20041184,0.1123742,0.9742554,3.962,29.8662,-8.729,0,0,1,0,0,0,0
231,1970-01-01 00:01:55.500,-0.29870236,0.07915116,0.95555524,-2.2428,-20.3084,23.3492,0,0,1,0,0,0,0
232,1970-01-01 00:01:56.000,-0.07430044,0.11413344,0.95240032,6.0144,-4.767,-19.0372,0,0,1,0,0,0,0
233,1970-01-01 00:01:56.500,-0.21145284,0.09385216,0.9735234,-7.63,-14.2996,-1.1816,0,0,1,0,0,0,0
234,1970-01-01 00:01:57.000,-0.19800844,0.08629548,0.97212772,4.3694,2.772,-6.4498,0,0,1,0,0,0,0
235,1970-01-01 00:01:57.500,-0.21719172,0.09878096,0.9592494,2.2596,-11.424,9.1462,0,0,1,0,0,0,0
236,1970-01-01 00:01:58.000,0.18136032,0.21388064,1.09935664,19.3424,55.5674,3.7016,0,0,1,0,0,0,0
237,1970-01-01 00:01:58.500,-0.62940288,0.15085544,0.89741492,-26.0428,-46.7166,21.3542,0,0,1,0,0,0,0
238,1970-01-01 00:01:59.000,-0.22847916,0.13402188,0.99172092,-2.5088,-8.8956,1.8508,0,0,1,0,0,0,0
239,1970-01-01 00:01:59.500,-0.19838176,0.12649936,0.96910944,3.4538,-9.352,0.8708,0,0,1,0,0,0,0
240,1970-01-01 00:02:00.000,-0.21189936,0.1177544,0.96818712,2.0118,-1.1634,-11.4506,0,0,1,0,0,0,0
241,1970-01-01 00:02:00.500,-0.21500792,0.13143792,0.96706716,10.7968,3.8038,-15.9544,0,0,1,0,0,0,0
242,1970-01-01 00:02:01.000,-0.23939816,0.12309068,0.94660532,-11.4604,-3.7366,18.9098,0,0,1,0,0,0,0
243,1970-01-01 00:02:01.500,-0.23922248,0.1507554,0.9479644,2.702,-16.065,22.9824,0,0,1,0,0,0,0
244,1970-01-01 00:02:02.000,-0.19454608,0.16644704,0.95871504,2.4178,-16.7104,-7.7882,0,0,1,0,0,0,0
245,1970-01-01 00:02:02.500,-0.14801528,0.15771428,0.91218668,9.6992,-4.0404,-49.0,0,0,1,0,0,0,0
246,1970-01-01 00:02:03.000,0.00278892,0.14467736,0.99146716,-7.4032,-14.35,46.06,0,0,1,0,0,0,0
247,1970-01-01 00:02:03.500,-0.03726612,0.20623856,1.03507972,11.0194,28.756,-19.3242,0,0,1,0,0,0,0
248,1970-01-01 00:02:04.000,-0.41165728,0.08576844,0.94895992,-15.9726,-32.298,12.2136,0,0,1,0,0,0,0
249,1970-01-01 00:02:04.500,-0.22423356,0.14559724,0.94877692,11.8342,-9.9876,-7.1736,0,0,1,0,0,0,0
250,1970-01-01 00:02:05.000,-0.17669748,0.15047968,0.97873524,-3.8262,-0.7518,7.4088,0,0,1,0,0,0,0
251,1970-01-01 00:02:05.500,-0.172935,0.1251598,0.9749508,1.0598,-16.3212,-13.1894,0,0,1,0,0,0,0
252,1970-01-01 00:02:06.000,-0.20695104,0.1054324,0.96610092,13.8082,-5.7736,-41.258,0,0,1,0,0,0,0
253,1970-01-01 00:02:06.500,-0.23362512,0.1006622,0.96969504,14.3808,-8.0318,-56.5922,0,0,1,0,0,0,0
254,1970-01-01 00:02:07.000,-0.1987624,0.0947574,0.98017728,13.4246,-3.4636,-52.0464,0,0,1,0,0,0,0
255,1970-01-01 00:02:07.500,-0.20180752,0.11762996,0.96399764,3.4888,-11.5192,-23.5956,0,0,1,0,0,0,0
256,1970-01-01 00:02:08.000,-0.2096936,0.13143792,0.9606036,9.6516,0.2338,-10.402,0,0,1,0,0,0,0
257,1970-01-01 00:02:08.500,-0.29070648,0.13273356,0.93243868,-6.0256,-18.1944,12.2724,0,0,1,0,0,0,0
258,1970-01-01 00:02:09.000,-0.24351444,0.10972436,0.96362432,-4.2126,17.038,25.732,0,0,1,0,0,0,0
259,1970-01-01 00:02:09.500,-0.27843328,0.14685384,0.962092,4.6354,-6.8964,-16.023,0,0,1,0,0,0,0
260,1970-01-01 00:02:10.000,-0.2669604,0.13932644,0.94109092,-1.8984,-16.8994,-9.989,0,0,1,0,0,0,0
261,1970-01-01 00:02:10.500,-0.10667924,0.1617964,1.00609252,-12.2514,-19.1072,20.8026,0,0,1,0,0,0,0
262,1970-01-01 00:02:11.000,-0.23128272,0.1016992,0.9607134,0.6706,6.0102,21.3528,0,0,1,0,0,0,0
263,1970-01-01 00:02:11.500,-0.18602316,0.09614576,0.97749328,3.535,-7.6888,-7.2352,0,0,1,0,0,0,0
264,1970-01-01 00:02:12.000,-0.2072048,0.1275266,0.97799104,9.0818,-6.5744,-23.5676,0,0,1,0,0,0,0
265,1970-01-01 00:02:12.500,-0.22969184,0.11902076,0.93514708,7.77,7.8064,-1.7164,0,0,1,0,0,0,0
266,1970-01-01 00:02:13.000,0.15124828,0.1977132,0.98945904,7.4228,-11.3484,-13.4288,0,0,1,0,0,0,0
267,1970-01-01 00:02:13.500,-0.31846636,0.09888344,0.97832532,-19.341,-15.7024,35.7868,0,0,1,0,0,0,0
268,1970-01-01 00:02:14.000,-0.38610316,0.17845428,0.93480304,-5.0134,-7.6258,1.4868,0,0,1,0,0,0,0
269,1970-01-01 00:02:14.500,-0.23413508,0.11116396,0.96347548,1.3594,-10.486,1.9166,0,0,1,0,0,0,0
270,1970-01-01 00:02:15.000,-0.21161632,0.12337616,0.9738772,2.7062,-10.6652,-8.435,0,0,1,0,0,0,0
271,1970-01-01 00:02:15.500,-0.1812432,0.10231408,0.9788182,2.9918,8.407,-11.8706,0,0,1,0,0,0,0
272,1970-01-01 00:02:16.000,-0.21416612,0.11475564,0.94072004,5.9458,-21.336,-23.2722,0,0,1,0,0,0,0
273,1970-01-01 00:02:16.500,-0.23243928,0.11004644,0.94285504,3.339,1.7934,-5.5832,0,0,1,0,0,0,0
274,1970-01-01 00:02:17.000,-0.13619104,0.13432688,0.97474584,-7.8078,-22.1368,11.76,0,0,1,0,0,0,0
275,1970-01-01 00:02:17.500,-0.14106372,0.19380676,0.9579074,-4.6662,10.6316,34.3294,0,0,1,0,0,0,0
276,1970-01-01 00:02:18.000,-0.23973732,0.14252528,0.95868088,0.4214,0.7714,-1.9572,0,0,1,0,0,0,0
277,1970-01-01 00:02:18.500,-0.27535888,0.15056264,0.95045808,4.7306,1.4224,4.2252,0,0,1,0,0,0,0
278,1970-01-01 00:02:19.000,-0.25647816,0.13972904,0.95333728,7.0812,-6.7354,-15.8298,0,0,1,0,0,0,0
279,1970-01-01 00:02:19.500,-0.17380852,0.12687024,0.98586492,-7.1442,14.0728,-12.9458,0,0,1,0,0,0,0
280,1970-01-01 00:02:20.000,-0.13725732,0.11354784,0.93695756,2.6824,-14.0028,13.384,0,0,1,0,0,0,0
281,1970-01-01 00:02:20.500,-0.13908488,0.19415324,0.98871972,21.3556,6.7018,-21.2296,0,0,1,0,0,0,0
282,1970-01-01 00:02:21.000,-0.2490508,0.13042044,0.94846704,-14.3738,-21.2436,1.6772,0,0,1,0,0,0,0
283,1970-01-01 00:02:21.500,-0.26140208,0.17954496,0.98423744,-5.7078,-1.2348,29.5764,0,0,1,0,0,0,0
284,1970-01-01 00:02:22.000,-0.27902864,0.13461968,0.94445324,-3.9004,0.9646,-16.9666,0,0,1,0,0,0,0
285,1970-01-01 00:02:22.500,-0.2503806,0.15740196,0.97235464,0.8526,-5.8464,8.7766,0,0,1,0,0,0,0
286,1970-01-01 00:02:23.000,-0.22981628,0.13056928,0.95578704,16.9582,14.805,-41.0942,0,0,1,0,0,0,0
287,1970-01-01 00:02:23.500,-0.1877824,0.07661844,0.98240012,1.5134,-18.6004,-18.0964,0,0,1,0,0,0,0
288,1970-01-01 00:02:24.000,-0.2675704,0.1017724,0.95807332,22.2292,0.2044,-107.4766,0,0,1,0,0,0,0
289,1970-01-01 00:02:24.500,-0.21619376,0.10135272,0.97027332,20.783,-21.4158,-73.1668,0,0,1,0,0,0,0
290,1970-01-01 00:02:25.000,-0.20506492,0.08014912,0.96980972,2.2204,-2.6894,-13.02,0,0,1,0,0,0,0
291,1970-01-01 00:02:25.500,-0.21839952,0.08309664,0.96875564,3.3376,-4.4002,-5.8828,0,0,1,0,0,0,0
292,1970-01-01 00:02:26.000,-0.20939104,0.0978684,0.96126972,5.607,-9.0048,-7.8316,0,0,1,0,0,0,0
293,1970-01-01 00:02:26.500,-0.1844152,0.10624736,0.9771468,-0.1064,-12.474,-14.0322,0,0,1,0,0,0,0
294,1970-01-01 00:02:27.000,-0.20728532,0.09865164,0.9835152,-2.0552,-3.2942,7.2212,0,0,1,0,0,0,0
295,1970-01-01 00:02:27.500,-0.20505028,0.09135604,0.97582432,-5.3438,-8.057,13.2776,0,0,1,0,0,0,0
296,1970-01-01 00:02:28.000,-0.2231136,0.0992836,0.96954132,3.22,-2.8518,0.1988,0,0,1,0,0,0,0
297,1970-01-01 00:02:28.500,-0.28728804,0.11601712,0.94527552,5.971,2.0412,-27.594,0,0,1,0,0,0,0
298,1970-01-01 00:02:29.000,-0.14772248,0.10257272,0.96238724,1.19,-14.5852,6.7844,0,0,1,0,0,0,0
299,1970-01-01 00:02:29.500,-0.2280302,0.09015556,0.96063776,2.3156,-1.3524,-0.5264,0,0,1,0,0,0,0
300,1970-01-01 00:02:30.000,-0.1820728,0.10090376,0.96729408,0.4886,-10.99,-4.9126,0,0,1,0,0,0,0
301,1970-01-01 00:02:30.500,-0.2330932,0.11204968,0.91233796,-2.9624,-5.1926,14.6412,0,0,1,0,0,0,0
302,1970-01-01 00:02:31.000,-0.185989,0.11561696,0.98235132,0.7028,7.9366,-14.7,0,0,1,0,0,0,0
303,1970-01-01 00:02:31.500,-0.08767896,0.14138824,1.0178094,-4.396,5.6238,21.3962,0,0,1,0,0,0,0
304,1970-01-01 00:02:32.000,-0.35924364,0.04466664,0.94854512,1.3608,-35.903,-7.8302,0,0,1,0,0,0,0
305,1970-01-01 00:02:32.500,-0.23265644,0.10571056,0.97383572,-5.8548,-7.7098,6.7746,0,0,1,0,0,0,0
306,1970-01-01 00:02:33.000,-0.22378704,0.08237928,0.97254984,3.1738,11.9896,9.4668,0,0,1,0,0,0,0
307,1970-01-01 00:02:33.500,-0.25501172,0.0938302,0.95309084,8.1886,-17.2452,-37.5326,0,0,1,0,0,0,0
308,1970-01-01 00:02:34.000,-0.23542096,0.09842228,0.94628324,3.2914,-5.1968,-7.2268,0,0,1,0,0,0,0
309,1970-01-01 00:02:34.500,-0.24933872,0.09580172,0.95653124,1.4574,-4.809,1.652,0,0,1,0,0,0,0
310,1970-01-01 00:02:35.000,-0.25830816,0.11166904,0.95154632,1.8466,-7.903,-2.3786,0,0,1,0,0,0,0
311,1970-01-01 00:02:35.500,-0.20510396,0.10891184,0.97384792,4.9378,-18.2518,-10.8752,0,0,1,0,0,0,0
312,1970-01-01 00:02:36.000,-0.23962752,0.19982624,0.94689324,-20.1222,22.6296,34.2146,0,0,1,0,0,0,0
313,1970-01-01 00:02:36.500,-0.26116784,0.0852536,0.97916224,3.5238,-24.7086,-4.6382,0,0,1,0,0,0,0
314,1970-01-01 00:02:37.000,-0.27399004,0.11634896,0.96650596,1.148,-1.554,8.4168,0,0,1,0,0,0,0
315,1970-01-01 00:02:37.500,-0.266021,0.07212396,0.95044832,0.9968,16.73,-32.9098,0,0,1,0,0,0,0
316,1970-01-01 00:02:38.000,-0.31267624,0.13022768,0.92653876,6.9524,-7.7364,18.4394,0,0,1,0,0,0,0
317,1970-01-01 00:02:38.500,-0.30772548,0.11706144,0.93316824,5.7218,-8.365,-11.2336,0,0,1,0,0,0,0
318,1970-01-01 00:02:39.000,-0.2974238,0.11812528,0.9211854,-1.7864,-13.2132,1.5036,0,0,1,0,0,0,0
319,1970-01-01 00:02:39.500,-0.16952632,0.18490564,1.0007904,0.9016,19.3606,-21.9758,0,0,1,0,0,0,0
320,1970-01-01 00:02:40.000,-0.40979312,0.08689328,0.93507144,-11.4044,-39.4688,26.019,0,0,1,0,0,0,0
321,1970-01-01 00:02:40.500,-0.2944714,0.10355604,0.95930796,3.6526,-7.6482,-2.702,0,0,1,0,0,0,0
322,1970-01-01 00:02:41.000,-0.2512712,0.11588048,0.96333152,-3.6134,3.3796,2.2988,0,0,1,0,0,0,0
323,1970-01-01 00:02:41.500,-0.27390708,0.10115264,0.95163172,18.7572,22.6128,-2.2526,0,0,1,0,0,0,0
324,1970-01-01 00:02:42.000,-0.23989348,0.13438788,0.95029704,-9.5298,-26.6182,-5.1898,0,0,1,0,0,0,0
325,1970-01-01 00:02:42.500,-0.1054934,0.18003784,1.00025604,-12.6602,-9.3324,13.7592,0,0,1,0,0,0,0
326,1970-01-01 00:02:43.000,-0.22345276,0.12900524,0.98165348,-3.6414,-2.513,5.5538,0,0,1,0,0,0,0
327,1970-01-01 00:02:43.500,-0.2415966,0.1025898,0.977708,-0.693,1.8914,9.6376,0,0,1,0,0,0,0
328,1970-01-01 00:02:44.000,-0.25507272,0.11601712,0.94633448,10.549,3.6918,-19.3452,0,0,1,0,0,0,0
329,1970-01-01 00:02:44.500,-0.21718684,0.12500608,0.9661668,-2.2834,-28.5166,-7.1708,0,0,1,0,0,0,0
330,1970-01-01 00:02:45.000,-0.21170172,0.12371288,0.95128768,5.3074,10.85,-4.7012,0,0,1,0,0,0,0
331,1970-01-01 00:02:45.500,-0.19396048,0.12639444,0.95973496,-1.5162,-16.1812,6.3672,0,0,1,0,0,0,0
332,1970-01-01 00:02:46.000,-0.1931138,0.12185116,0.97400408,-3.6134,1.6898,6.503,0,0,1,0,0,0,0
333,1970-01-01 00:02:46.500,-0.21648656,0.14168348,0.95091192,-0.6356,-11.9028,10.108,0,0,1,0,0,0,0
334,1970-01-01 00:02:47.000,-0.22339908,0.16307496,0.9820024,-12.7834,0.861,7.5418,0,0,1,0,0,0,0
335,1970-01-01 00:02:47.500,-0.06003864,0.1227198,1.0194076,3.2788,3.9396,10.4244,0,0,1,0,0,0,0
336,1970-01-01 00:02:48.000,-0.44190596,0.13448304,0.91535624,3.6316,-9.401,-4.83,0,0,1,0,0,0,0
337,1970-01-01 00:02:48.500,-0.22538768,0.13110608,0.93970256,4.732,5.2514,-20.65,0,0,1,0,0,0,0
338,1970-01-01 00:02:49.000,-0.20058508,0.12199756,0.9405102,-1.4574,-9.618,-0.455,0,0,1,0,0,0,0
339,1970-01-01 00:02:49.500,-0.2576518,0.14950124,0.9357522,25.5682,22.869,-35.7168,0,0,1,0,0,0,0
340,1970-01-01 00:02:50.000,-0.2891766,0.1028582,0.93532276,-12.4614,-35.8624,22.8354,0,0,1,0,0,0,0
341,1970-01-01 00:02:50.500,-0.20743172,0.14158588,0.96088176,-0.651,-13.2916,-8.4658,0,0,1,0,0,0,0
342,1970-01-01 00:02:51.000,-0.10490536,0.18253884,0.97766652,-8.3132,8.1732,24.7674,0,0,1,0,0,0,0
343,1970-01-01 00:02:51.500,-0.28160772,0.14179084,0.989603,-0.5488,-12.3578,-0.819,0,0,1,0,0,0,0
344,1970-01-01 00:02:52.000,-0.22082976,0.16514896,0.98524516,-3.451,-1.5134,16.849,0,0,1,0,0,0,0
345,1970-01-01 00:02:52.500,-0.2471598,0.12979092,0.9602254,2.7104,7.994,-13.3924,0,0,1,0,0,0,0
346,1970-01-01 00:02:53.000,-0.08490224,0.14466028,1.01221692,12.8268,15.4168,-5.6658,0,0,1,0,0,0,0
347,1970-01-01 00:02:53.500,-0.40520348,0.143411,0.89525796,8.7962,-38.591,-11.816,0,0,1,0,0,0,0
348,1970-01-01 00:02:54.000,-0.13481732,0.14898152,0.9439384,-3.8052,-11.7362,-17.4048,0,0,1,0,0,0,0
349,1970-01-01 00:02:54.500,-0.1405684,0.17842988,0.95752432,-1.6828,2.5494,45.2298,0,0,1,0,0,0,0
350,1970-01-01 00:02:55.000,-0.17024368,0.1824266,0.96129168,12.0162,-6.0928,-46.0474,0,0,1,0,0,0,0
351,1970-01-01 00:02:55.500,-0.218258,0.15859512,0.96047428,-3.6554,-21.1848,9.8056,0,0,1,0,0,0,0
352,1970-01-01 00:02:56.000,-0.11623672,0.21895096,0.99473188,-15.8396,3.3068,21.945,0,0,1,0,0,0,0
353,1970-01-01 00:02:56.500,-0.2294332,0.11338192,1.0047554,0.462,-7.9338,-0.07,0,0,1,0,0,0,0
354,1970-01-01 00:02:57.000,-0.24215536,0.13263108,0.95961784,17.6904,2.0188,-2.0594,0,0,1,0,0,0,0
355,1970-01-01 00:02:57.500,-0.17736848,0.12503292,0.98491088,-8.5932,-13.0298,-25.235,0,0,1,0,0,0,0
356,1970-01-01 00:02:58.000,-0.20848336,0.1543788,0.95721444,0.868,-4.9476,0.4578,0,0,1,0,0,0,0
357,1970-01-01 00:02:58.500,-0.17186628,0.12951032,0.9784766,10.164,1.771,-16.8028,0,0,1,0,0,0,0
358,1970-01-01 00:02:59.000,-0.26363224,0.14407956,0.92687792,-2.1868,-11.2728,-0.8204,0,0,1,0,0,0,0
359,1970-01-01 00:02:59.500,-0.18590116,0.1273192,0.97123224,1.015,-12.6504,8.449,0,1,1,0,0,0,0
360,1970-01-01 00:03:00.000,-0.15867564,0.11023188,0.9814778,11.7964,4.4408,-51.5606,0,1,0,0,0,0,0
361,1970-01-01 00:03:00.500,-0.2614704,0.08906732,0.96307532,11.886,-9.4878,-49.0756,0,1,0,0,0,0,0
362,1970-01-01 00:03:01.000,-0.20735608,0.13145012,0.96443196,-5.2626,-9.569,35.875,0,1,0,0,0,0,0
363,1970-01-01 00:03:01.500,-0.1806942,0.10792608,0.97631476,-1.3006,-9.324,-1.2726,0,1,0,0,0,0,0
364,1970-01-01 00:03:02.000,-0.16836244,0.08391404,0.9826612,-3.2788,-7.8862,-0.3598,0,1,0,0,0,0,0
365,1970-01-01 00:03:02.500,-0.16027628,0.0670512,0.98460344,-1.9768,-7.9702,-0.945,0,1,0,0,0,0,0
366,1970-01-01 00:03:03.000,-0.15304168,0.06720736,0.98588444,4.2336,-5.2934,-0.2646,0,1,0,0,0,0,0
367,1970-01-01 00:03:03.500,-0.16159876,0.08522188,0.98288324,4.9014,-2.1042,-3.6428,0,1,0,0,0,0,0
368,1970-01-01 00:03:04.000,-0.21143576,0.09676796,0.97886944,7.1848,2.3758,-33.5482,0,1,0,0,0,0,0
369,1970-01-01 00:03:04.500,-0.21682572,0.09025804,0.97315496,0.3766,-5.467,9.6278,0,1,0,0,0,0,0
370,1970-01-01 00:03:05.000,-0.12496704,0.10354384,0.97421636,-3.7688,-8.5372,4.3204,0,1,0,0,0,0,0
371,1970-01-01 00:03:05.500,-0.18050632,0.0807762,0.97982836,0.875,-8.5288,0.392,0,1,0,0,0,0,0
372,1970-01-01 00:03:06.000,-0.1674206,0.06280072,0.98285152,-4.179,-8.092,-0.9128,0,1,0,0,0,0,0
373,1970-01-01 00:03:06.500,-0.16708632,0.05354336,0.9838202,0.0056,-6.1054,-0.9324,0,1,0,0,0,0,0
374,1970-01-01 00:03:07.000,-0.16497328,0.05401184,0.98493772,4.5332,-2.8826,1.148,0,1,0,0,0,0,0
375,1970-01-01 00:03:07.500,-0.20097548,0.08033456,0.97508988,6.3042,1.4532,-2.457,0,1,0,0,0,0,0
376,1970-01-01 00:03:08.000,-0.19902104,0.09222468,0.97602196,-2.1546,14.3108,8.8718,0,1,0,0,0,0,0
377,1970-01-01 00:03:08.500,-0.30123996,0.08485344,0.955504,0.1064,7.5964,-7.371,0,1,0,0,0,0,0
378,1970-01-01 00:03:09.000,-0.30576128,0.08624668,0.94696156,-2.0258,-13.4652,3.3614,0,1,0,0,0,0,0
379,1970-01-01 00:03:09.500,-0.31689744,0.12726552,0.97524116,3.2648,-33.7512,12.3116,0,1,0,0,0,0,0
380,1970-01-01 00:03:10.000,-0.18485196,0.09737064,0.976732,3.5028,-6.0844,0.8806,0,1,0,0,0,0,0
381,1970-01-01 00:03:10.500,-0.17738068,0.08845244,0.97947456,-6.6402,-9.2666,-2.3996,0,1,0,0,0,0,0
382,1970-01-01 00:03:11.000,-0.1733498,0.07418088,0.981368,5.516,-1.1186,0.8778,0,1,0,0,0,0,0
383,1970-01-01 00:03:11.500,-0.19575876,0.09808068,0.97432128,4.074,-1.2922,-1.6702,0,1,0,0,0,0,0
384,1970-01-01 00:03:12.000,-0.23355192,0.1016016,0.96704032,3.5238,5.845,-1.0878,0,1,0,0,0,0,0
385,1970-01-01 00:03:12.500,-0.26145088,0.10643768,0.95765364,1.1872,-6.0802,-3.0884,0,1,0,0,0,0,0
386,1970-01-01 00:03:13.000,-0.20140004,0.1155462,0.98441068,2.8574,40.2094,-4.718,0,1,0,0,0,0,0
387,1970-01-01 00:03:13.500,-0.36782268,0.10703792,0.93635732,0.5362,-40.019,-3.9648,0,1,0,0,0,0,0
388,1970-01-01 00:03:14.000,-0.3090504,0.12272224,0.94265496,8.8018,-6.5072,-18.8762,0,1,0,0,0,0,0
389,1970-01-01 00:03:14.500,-0.4288056,0.13204548,0.89080008,-2.254,-10.6708,6.6752,0,1,0,0,0,0,0
390,1970-01-01 00:03:15.000,-0.22307944,0.10178704,0.96902648,-4.0698,-27.139,0.8946,0,1,0,0,0,0,0
391,1970-01-01 00:03:15.500,-0.21219948,0.07515932,0.97266696,-5.2122,-4.4982,-4.606,0,1,0,0,0,0,0
392,1970-01-01 00:03:16.000,-0.21792616,0.05938472,0.97214236,-1.6114,-5.3508,-1.3748,0,1,0,0,0,0,0
393,1970-01-01 00:03:16.500,-0.22109816,0.06521632,0.97440668,7.6734,-0.2702,0.49,0,1,0,0,0,0,0
394,1970-01-01 00:03:17.000,-0.26951264,0.09546012,0.95542592,2.7902,13.321,-3.0268,0,1,0,0,0,0,0
395,1970-01-01 00:03:17.500,-0.2650938,0.08944552,0.95713148,2.5914,3.983,-2.3716,0,1,0,0,0,0,0
396,1970-01-01 00:03:18.000,-0.1890878,0.09427916,0.97662464,23.4626,-13.2356,-128.5648,0,1,0,0,0,0,0
397,1970-01-01 00:03:18.500,-0.1052372,0.0996008,0.99515156,3.8262,-3.4916,-12.6126,0,1,0,0,0,0,0
398,1970-01-01 00:03:19.000,-0.2267126,0.11084676,0.93710396,-5.2584,-8.708,21.4368,0,1,0,0,0,0,0
399,1970-01-01 00:03:19.500,-0.170495,0.10142348,0.9775128,6.6094,-8.0976,3.1962,0,1,0,0,0,0,0
400,1970-01-01 00:03:20.000,-0.16932136,0.09836372,0.98025048,-5.8744,-6.8586,-0.9156,0,1,0,0,0,0,0
401,1970-01-01 00:03:20.500,-0.16412172,0.08367492,0.98240988,1.4322,-7.5012,-0.175,0,1,0,0,0,0,0
402,1970-01-01 00:03:21.000,-0.1674328,0.09325436,0.98032612,3.8486,-2.1294,-2.9134,0,1,0,0,0,0,0
403,1970-01-01 00:03:21.500,-0.0675148,0.10001072,1.00410148,6.573,2.9862,-24.6274,0,1,0,0,0,0,0
404,1970-01-01 00:03:22.000,-0.19781324,0.10035964,0.96777232,-2.198,-10.5252,8.372,0,1,0,0,0,0,0
405,1970-01-01 00:03:22.500,-0.25722968,0.09094612,0.96479796,1.4966,-9.3338,-6.0046,0,1,0,0,0,0,0
406,1970-01-01 00:03:23.000,-0.2572492,0.1092388,0.95312988,-4.9686,-6.8908,13.16,0,1,0,0,0,0,0
407,1970-01-01 00:03:23.500,-0.1747162,0.0657092,0.98008212,-4.6564,-8.8032,-1.7276,0,1,0,0,0,0,0
408,1970-01-01 00:03:24.000,-0.16489764,0.0487756,0.98394464,-1.057,-6.9314,-0.2044,0,1,0,0,0,0,0
409,1970-01-01 00:03:24.500,-0.16639824,0.04358328,0.98446924,2.8126,-6.0858,1.1368,0,1,0,0,0,0,0
410,1970-01-01 00:03:25.000,-0.15735316,0.0604388,0.98422036,6.2804,-4.5094,-0.2296,0,1,0,0,0,0,0
411,1970-01-01 00:03:25.500,-0.181048,0.08832556,0.98115572,5.5202,20.2216,-12.7106,0,1,0,0,0,0,0
412,1970-01-01 00:03:26.000,-0.32984408,0.06753188,0.95345196,7.1428,-9.0622,-17.8038,0,1,0,0,0,0,0
413,1970-01-01 00:03:26.500,-0.14228128,0.09455976,0.98758024,0.9142,-12.1366,18.4156,0,1,0,0,0,0,0
414,1970-01-01 00:03:27.000,-0.25638544,0.07309264,0.92814428,0.1428,-16.352,8.4322,0,1,0,0,0,0,0
415,1970-01-01 00:03:27.500,-0.1956392,0.118096,0.9735478,14.3556,-0.966,0.5614,0,1,0,0,0,0,0
416,1970-01-01 00:03:28.000,-0.19446556,0.12245872,0.96685976,-18.8594,-13.6808,-3.6456,0,1,0,0,0,0,0
417,1970-01-01 00:03:28.500,-0.17316192,0.05299436,0.98183892,-4.9896,-8.7108,-0.938,0,1,0,0,0,0,0
418,1970-01-01 00:03:29.000,-0.17107572,0.04838276,0.9837714,6.5576,-4.6816,0.2688,0,1,0,0,0,0,0
419,1970-01-01 00:03:29.500,-0.17072192,0.0689544,0.98258312,5.18,-2.5214,-4.0264,0,1,0,0,0,0,0
420,1970-01-01 00:03:30.000,-0.08895508,0.08734468,1.00604616,5.3746,-0.3892,-12.2248,0,1,0,0,0,0,0
421,1970-01-01 00:03:30.500,-0.28025596,0.09172692,0.95485008,0.3332,-8.3216,7.5236,0,1,0,0,0,0,0
422,1970-01-01 00:03:31.000,-0.15076028,0.09986432,0.97173976,-1.3468,-9.212,-4.3246,0,1,0,0,0,0,0
423,1970-01-01 00:03:31.500,-0.17938148,0.07282424,0.9815388,-3.276,-9.9386,-0.7224,0,1,0,0,0,0,0
424,1970-01-01 00:03:32.000,-0.16370448,0.05826964,0.98280272,-0.9338,-8.0388,-0.1512,0,1,0,0,0,0,0
425,1970-01-01 00:03:32.500,-0.16065936,0.0491416,0.98477668,0.0924,-5.9878,-1.4364,0,1,0,0,0,0,0
426,1970-01-01 00:03:33.000,-0.16045684,0.0543144,0.98631876,6.293,-3.4496,0.966,0,1,0,0,0,0,0
427,1970-01-01 00:03:33.500,-0.13037164,0.09586028,0.99161112,11.5598,23.8462,-24.9102,0,1,0,0,0,0,0
428,1970-01-01 00:03:34.000,-0.2930928,0.08051268,0.9648248,-3.7198,-27.3322,9.9988,0,1,0,0,0,0,0
429,1970-01-01 00:03:34.500,0.01596736,0.1160586,1.02288704,-0.4858,-10.4944,12.523,0,1,0,0,0,0,0
430,1970-01-01 00:03:35.000,-0.34692408,0.07335128,0.90418836,-2.7622,-7.0224,-2.3338,0,1,0,0,0,0,0
431,1970-01-01 00:03:35.500,-0.16413636,0.06781248,0.98333464,-0.483,-8.2474,0.1316,0,1,0,0,0,0,0
432,1970-01-01 00:03:36.000,-0.05741076,0.07472744,1.00505552,11.4716,6.1236,-38.7646,0,1,0,0,0,0,0
433,1970-01-01 00:03:36.500,-0.24005452,0.07910236,0.96712084,3.2788,-12.054,-19.985,0,1,0,0,0,0,0
434,1970-01-01 00:03:37.000,-0.22330392,0.10001804,0.94738124,2.9358,-10.1262,0.4858,0,1,0,0,0,0,0
435,1970-01-01 00:03:37.500,-0.1880264,0.14833004,0.9668256,21.0378,-1.2082,4.5388,0,1,0,0,0,0,0
436,1970-01-01 00:03:38.000,-0.19238424,0.13942892,0.97124932,-27.083,-12.3382,-6.2384,0,1,0,0,0,0,0
437,1970-01-01 00:03:38.500,-0.15811688,0.04164836,0.986004,-10.2256,-11.3372,-2.191,0,1,0,0,0,0,0
438,1970-01-01 00:03:39.000,-0.14648784,0.02237968,0.98804872,7.0168,-4.3134,-0.9674,0,1,0,0,0,0,0
439,1970-01-01 00:03:39.500,-0.15260248,0.05544412,0.9868458,5.1926,-0.182,-0.9408,0,1,0,0,0,0,0
440,1970-01-01 00:03:40.000,-0.22901352,0.06898124,0.97557544,-1.2754,62.3476,6.2146,0,1,0,0,0,0,0
441,1970-01-01 00:03:40.500,-0.30194024,0.06909348,0.9444996,7.3206,-61.9696,-15.8228,0,1,0,0,0,0,0
442,1970-01-01 00:03:41.000,-0.31132448,0.0847534,0.93884612,6.2692,-17.0422,-0.0462,0,1,0,0,0,0,0
443,1970-01-01 00:03:41.500,-0.17484308,0.10184316,0.97810328,-0.2338,-9.261,1.7486,0,1,0,0,0,0,0
444,1970-01-01 00:03:42.000,-0.16482688,0.07545944,0.9825514,-3.7338,-5.5748,-0.1386,0,1,0,0,0,0,0
445,1970-01-01 00:03:42.500,-0.16485372,0.05995324,0.9838568,-2.9484,-7.518,-1.3048,0,1,0,0,0,0,0
446,1970-01-01 00:03:43.000,-0.15600384,0.0582916,0.98574536,5.446,-5.2948,-0.3122,0,1,0,0,0,0,0
447,1970-01-01 00:03:43.500,-0.18013544,0.08153504,0.97976492,3.4776,5.4138,-7.3038,0,1,0,0,0,0,0
448,1970-01-01 00:03:44.000,-0.20481604,0.08448256,0.98298572,2.835,-4.7964,-8.0346,0,1,0,0,0,0,0
449,1970-01-01 00:03:44.500,-0.251747,0.08662,0.96458812,3.1346,-4.3666,11.7488,0,1,0,0,0,0,0
450,1970-01-01 00:03:45.000,-0.15552316,0.09079484,0.97687352,-2.7678,-14.1442,-10.57,0,1,0,0,0,0,0
451,1970-01-01 00:03:45.500,-0.19943828,0.06033388,0.97879136,-2.5144,-13.9538,-0.4774,0,1,0,0,0,0,0
452,1970-01-01 00:03:46.000,-0.15840968,0.04219248,0.98562336,-4.592,-9.555,-0.1792,0,1,0,0,0,0,0
453,1970-01-01 00:03:46.500,-0.1435208,0.02147932,0.98877096,-1.1144,-7.1372,-1.5022,0,1,0,0,0,0,0
454,1970-01-01 00:03:47.000,-0.1433134,0.03310104,0.98848304,10.269,-3.2704,2.6922,0,1,0,0,0,0,0
455,1970-01-01 00:03:47.500,-0.1597346,0.06996212,0.9846376,4.3246,-1.4014,-3.248,0,1,0,0,0,0,0
456,1970-01-01 00:03:48.000,-0.18209964,0.08115684,0.98023828,4.417,4.1846,-8.4084,0,1,0,0,0,0,0
457,1970-01-01 00:03:48.500,-0.17626804,0.0880352,0.98796332,3.9088,-8.4266,-12.194,0,1,0,0,0,0,0
458,1970-01-01 00:03:49.000,-0.11735668,0.10586428,0.99024716,3.6134,-7.07,-8.3412,0,1,0,0,0,0,0
459,1970-01-01 00:03:49.500,-0.35822616,0.09354472,0.93763344,-3.8108,-12.1492,30.4304,0,1,0,0,0,0,0
460,1970-01-01 00:03:50.000,-0.17034616,0.08113244,0.98092392,-2.7846,-7.5166,-0.8988,0,1,0,0,0,0,0
461,1970-01-01 00:03:50.500,-0.16235028,0.07521544,0.98351276,4.0866,-6.314,1.3286,0,1,0,0,0,0,0
462,1970-01-01 00:03:51.000,-0.1653832,0.08697868,0.98156808,0.7672,-4.4408,-1.8984,0,1,0,0,0,0,0
463,1970-01-01 00:03:51.500,-0.16686672,0.08878184,0.98123136,1.6492,-6.3616,-0.8582,0,1,0,0,0,0,0
464,1970-01-01 00:03:52.000,-0.17401104,0.09831248,0.97959168,4.8356,2.4178,-4.102,0,1,0,0,0,0,0
465,1970-01-01 00:03:52.500,-0.24673768,0.1070184,0.96457348,-4.354,17.801,18.0138,0,1,0,0,0,0,0
466,1970-01-01 00:03:53.000,-0.08372616,0.09564068,1.0093548,4.305,-34.1754,-39.9322,0,1,0,0,0,0,0
467,1970-01-01 00:03:53.500,-0.2217228,0.05325544,0.93443704,4.6928,-7.175,-22.9572,0,1,0,0,0,0,0
468,1970-01-01 00:03:54.000,-0.10608632,0.08120808,0.99486608,17.1598,-13.9426,-108.0226,0,1,0,0,0,0,0
469,1970-01-01 00:03:54.500,-0.16438036,0.11141772,0.95995944,-2.1476,-2.9806,28.231,0,1,0,0,0,0,0
470,1970-01-01 00:03:55.000,-0.16363372,0.08448988,0.98215124,-1.26,-10.6568,-0.357,0,1,0,0,0,0,0
471,1970-01-01 00:03:55.500,-0.15733608,0.06912764,0.9856624,0.1834,-5.6756,-0.3724,0,1,0,0,0,0,0
472,1970-01-01 00:03:56.000,-0.15350284,0.06983036,0.98633584,1.5876,-6.6192,-0.6398,0,1,0,0,0,0,0
473,1970-01-01 00:03:56.500,-0.15953452,0.08882332,0.98331512,4.9686,-3.5812,-2.8938,0,1,0,0,0,0,0
474,1970-01-01 00:03:57.000,-0.1727398,0.0809714,0.98088488,-2.2022,9.2876,-11.4842,0,1,0,0,0,0,0
475,1970-01-01 00:03:57.500,-0.14643172,0.0715042,0.99256516,3.8192,8.4742,-12.9878,0,1,0,0,0,0,0
476,1970-01-01 00:03:58.000,-0.16967272,0.09980576,0.92942284,2.3898,-31.1402,23.73,0,1,0,0,0,0,0
477,1970-01-01 00:03:58.500,-0.1619306,0.09018972,0.98170716,-0.203,-8.1858,0.1526,0,1,0,0,0,0,0
478,1970-01-01 00:03:59.000,-0.16041292,0.07391248,0.98328584,-6.4512,-6.8796,-1.9782,0,1,0,0,0,0,0
479,1970-01-01 00:03:59.500,-0.1552694,0.04973452,0.98688484,1.0598,-7.0938,0.1456,0,1,0,0,0,0,0
480,1970-01-01 00:04:00.000,-0.15474236,0.06850544,0.9859674,9.0538,-1.4392,2.1,0,1,0,0,0,0,0
481,1970-01-01 00:04:00.500,-0.17856652,0.098942,0.97912808,4.9644,2.212,-3.5154,0,1,0,0,0,0,0
482,1970-01-01 00:04:01.000,-0.37494748,0.09951784,0.9192334,4.9532,84.3514,-29.2376,0,1,0,0,0,0,0
483,1970-01-01 00:04:01.500,-0.2976556,0.13995108,0.95631164,2.4724,-73.8878,3.8262,0,1,0,0,0,0,0
484,1970-01-01 00:04:02.000,-0.34976424,0.06582876,0.92547004,-9.0118,-34.1292,14.9674,0,1,0,0,0,0,0
485,1970-01-01 00:04:02.500,-0.16553692,0.05327984,0.98438384,-2.7104,-9.8322,0.1568,0,1,0,0,0,0,0
486,1970-01-01 00:04:03.000,-0.15712136,0.05155476,0.98560384,0.9758,-5.7148,-0.5768,0,1,0,0,0,0,0
487,1970-01-01 00:04:03.500,-0.14961104,0.05026156,0.9878462,3.0856,-7.5292,-0.805,0,1,0,0,0,0,0
488,1970-01-01 00:04:04.000,-0.15724092,0.07095764,0.98467908,5.4236,2.3604,-2.4374,0,1,0,0,0,0,0
489,1970-01-01 00:04:04.500,-0.18360756,0.08161556,0.98686532,7.9436,24.6568,-15.1312,0,1,0,0,0,0,0
490,1970-01-01 00:04:05.000,-0.17820784,0.09438652,0.98587468,0.8554,-29.582,20.5702,0,1,0,0,0,0,0
491,1970-01-01 00:04:05.500,-0.24450508,0.11331604,0.94486316,-2.1518,-17.311,2.3324,0,1,0,0,0,0,0
492,1970-01-01 00:04:06.000,-0.15640156,0.0807274,0.98322728,-3.9886,-7.8344,-0.2968,0,1,0,0,0,0,0
493,1970-01-01 00:04:06.500,-0.14883756,0.06107564,0.986858,0.6692,-7.3822,0.1652,0,1,0,0,0,0,0
494,1970-01-01 00:04:07.000,-0.14701976,0.07572052,0.98573072,6.1124,-4.7054,-1.0444,0,1,0,0,0,0,0
495,1970-01-01 00:04:07.500,-0.11917936,0.11159096,0.98972988,3.8402,9.9092,4.4366,0,1,0,0,0,0,0
496,1970-01-01 00:04:08.000,-0.2445246,0.08386524,0.96591304,2.8644,-10.9508,-23.0748,0,1,0,0,0,0,0
497,1970-01-01 00:04:08.500,-0.0588528,0.11813016,1.00532636,7.3752,-6.8054,-16.7384,0,1,0,0,0,0,0
498,1970-01-01 00:04:09.000,-0.30585156,0.1304058,0.94493636,-7.994,-13.475,32.704,0,1,0,0,0,0,0
499,1970-01-01 00:04:09.500,-0.14780056,0.08211576,0.98469128,-4.8356,-9.9302,0.1064,0,1,0,0,0,0,0
500,1970-01-01 00:04:10.000,-0.13457088,0.06751968,0.98864896,0.147,-6.5058,-0.917,0,1,0,0,0,0,0
501,1970-01-01 00:04:10.500,-0.14127844,0.08350412,0.98525736,4.8888,-0.889,-3.8976,0,1,0,0,0,0,0
502,1970-01-01 00:04:11.000,-0.18201424,0.09292984,0.97771776,-0.1988,26.5244,0.231,0,1,0,0,0,0,0
503,1970-01-01 00:04:11.500,-0.21409292,0.06417932,0.97345752,0.5768,-25.9784,1.834,0,1,0,0,0,0,0
504,1970-01-01 00:04:12.000,-0.15198516,0.05173288,0.98620896,4.5962,-5.5482,-0.707,0,1,0,0,0,0,0
505,1970-01-01 00:04:12.500,-0.14397952,0.062464,0.98816584,1.0444,-5.026,-1.9978,0,1,0,0,0,0,0
506,1970-01-01 00:04:13.000,-0.09887124,0.07907796,0.9980332,2.184,10.668,-14.9646,0,1,0,0,0,0,0
507,1970-01-01 00:04:13.500,-0.30089104,0.05051044,0.953918,-1.9082,-4.7642,14.0294,0,1,0,0,0,0,0
508,1970-01-01 00:04:14.000,-0.12487188,0.09025316,0.96625952,0.2856,-19.6714,4.844,0,1,0,0,0,0,0
509,1970-01-01 00:04:14.500,-0.1548668,0.05386544,0.9856014,-3.4832,-11.3036,0.854,0,1,0,0,0,0,0
510,1970-01-01 00:04:15.000,-0.14672696,0.03692452,0.98727036,-2.1,-5.2584,-0.035,0,1,0,0,0,0,0
511,1970-01-01 00:04:15.500,-0.14479204,0.03930108,0.9883098,4.963,-5.2038,-0.6678,0,1,0,0,0,0,0
512,1970-01-01 00:04:16.000,-0.16151824,0.06862988,0.98681164,8.113,19.6084,-11.6368,0,1,0,0,0,0,0
513,1970-01-01 00:04:16.500,-0.52551256,0.06630212,0.82816284,5.4334,98.714,-24.9928,0,1,0,0,0,0,0
514,1970-01-01 00:04:17.000,-0.55052256,0.06750748,0.8161434,8.7892,-66.0226,-1.9768,0,1,0,0,0,0,0
515,1970-01-01 00:04:17.500,-0.26991036,0.09692656,0.94951136,-1.5694,-72.6404,30.0664,0,1,0,0,0,0,0
516,1970-01-01 00:04:18.000,-0.16422176,0.0573278,0.98278564,-4.648,-6.216,-1.1956,0,1,0,0,0,0,0
517,1970-01-01 00:04:18.500,-0.15972728,0.04342956,0.9848694,-4.914,-8.0766,-1.1508,0,1,0,0,0,0,0
518,1970-01-01 00:04:19.000,-0.1663592,0.0441762,0.98415448,7.2926,-5.9458,-0.5082,0,1,0,0,0,0,0
519,1970-01-01 00:04:19.500,-0.160064,0.06726836,0.98589176,3.822,6.4848,-5.3522,0,1,0,0,0,0,0
520,1970-01-01 00:04:20.000,-0.33851096,0.03735884,0.9415106,5.1086,-4.3162,-11.305,0,1,0,0,0,0,0
521,1970-01-01 00:04:20.500,-0.13503692,0.08096408,0.9980332,-3.7338,8.6422,13.2916,0,1,0,0,0,0,0
522,1970-01-01 00:04:21.000,-0.21311692,0.06182716,0.9481474,1.3146,-32.676,-14.077,0,1,0,0,0,0,0
523,1970-01-01 00:04:21.500,-0.15692128,0.05839164,0.98392756,-1.5162,-8.9054,0.9716,0,1,0,0,0,0,0
524,1970-01-01 00:04:22.000,-0.14578268,0.04734332,0.9876022,1.1494,-7.7868,3.1584,0,1,0,0,0,0,0
525,1970-01-01 00:04:22.500,-0.15020884,0.06451848,0.98504508,7.0504,-0.6398,-3.8976,0,1,0,0,0,0,0
526,1970-01-01 00:04:23.000,-0.19941876,0.08387744,0.98111912,-2.478,36.1634,-9.1294,0,1,0,0,0,0,0
527,1970-01-01 00:04:23.500,-0.48767548,0.04920748,0.85865308,0.0938,51.4318,-4.4184,0,1,0,0,0,0,0
528,1970-01-01 00:04:24.000,-0.15390788,0.101809,0.99641792,9.1308,-103.4432,14.742,0,1,0,0,0,0,0
529,1970-01-01 00:04:24.500,-0.25417968,0.06307888,0.94106408,-7.5978,-10.451,-4.7656,0,1,0,0,0,0,0
530,1970-01-01 00:04:25.000,-0.14108324,0.0471774,0.98770468,1.127,-7.504,-0.7196,0,1,0,0,0,0,0
531,1970-01-01 00:04:25.500,-0.14553136,0.0712968,0.98843424,5.054,10.5462,-0.8834,0,1,0,0,0,0,0
532,1970-01-01 00:04:26.000,-0.26369324,0.06340096,0.96039376,-2.779,-0.7,3.8752,0,1,0,0,0,0,0
533,1970-01-01 00:04:26.500,0.03621448,0.09765856,1.03045592,7.9842,-12.0904,-22.0178,0,1,0,0,0,0,0
534,1970-01-01 00:04:27.000,-0.25311096,0.06917888,0.92333992,-0.2772,-14.3682,19.9696,0,1,0,0,0,0,0
535,1970-01-01 00:04:27.500,-0.14970132,0.06644364,0.98586248,1.6632,-9.2988,-0.147,0,1,0,0,0,0,0
536,1970-01-01 00:04:28.000,-0.15915876,0.08816696,0.98686288,0.0574,2.9554,-3.0128,0,1,0,0,0,0,0
537,1970-01-01 00:04:28.500,-0.25381124,0.04758732,0.96385856,4.2308,-27.3,-11.9462,0,1,0,0,0,0,0
538,1970-01-01 00:04:29.000,-0.177937,0.06709512,0.98162664,-5.7498,-6.8922,-2.7104,0,1,0,0,0,0,0
539,1970-01-01 00:04:29.500,-0.16328724,0.05553196,0.98531836,12.0708,-1.1816,-8.2348,0,1,0,0,0,0,0
540,1970-01-01 00:04:30.000,-0.1444358,0.04691388,0.93903156,20.3112,-5.7036,-91.9506,0,1,0,0,0,0,0
541,1970-01-01 00:04:30.500,-0.1041758,0.03624132,0.996252,-8.365,-20.5044,-0.9198,0,1,0,0,0,0,0
542,1970-01-01 00:04:31.000,-0.16151824,0.05012248,0.98531836,0.1778,-8.1816,0.2044,0,1,0,0,0,0,0
543,1970-01-01 00:04:31.500,-0.15842432,0.05644696,0.98566972,5.5972,-3.885,-1.4686,0,1,0,0,0,0,0
544,1970-01-01 00:04:32.000,-0.11754456,0.08345044,1.00477736,5.1352,26.2304,-35.8974,0,1,0,0,0,0,0
545,1970-01-01 00:04:32.500,-0.31374496,0.0727608,0.941901,-6.2412,-26.0526,31.4272,0,1,0,0,0,0,0
546,1970-01-01 00:04:33.000,-0.13863104,0.09646052,0.96977068,2.3562,-15.6926,-0.5992,0,1,0,0,0,0,0
547,1970-01-01 00:04:33.500,-0.1643706,0.0742858,0.98479864,-2.5494,-11.0754,-1.3132,0,1,0,0,0,0,0
548,1970-01-01 00:04:34.000,-0.15416896,0.0465186,0.9857844,-8.2404,-7.6608,-1.2446,0,1,0,0,0,0,0
549,1970-01-01 00:04:34.500,-0.15294652,0.02742316,0.98815364,3.5588,-5.7232,0.4144,0,1,0,0,0,0,0
550,1970-01-01 00:04:35.000,-0.15886352,0.05410944,0.98470348,6.1964,-2.5256,-1.3594,0,1,0,0,0,0,0
551,1970-01-01 00:04:35.500,-0.18078448,0.07832644,0.98001136,3.2396,8.722,-4.3246,0,1,0,0,0,0,0
552,1970-01-01 00:04:36.000,-0.40605748,0.0719922,0.9246502,-2.534,6.209,9.8952,0,1,0,0,0,0,0
553,1970-01-01 00:04:36.500,0.07126264,0.06284952,1.06575052,3.1262,-28.3808,1.0584,0,1,0,0,0,0,0
554,1970-01-01 00:04:37.000,-0.31194668,0.08912832,0.883402,-3.4944,-7.644,-6.0676,0,1,0,0,0,0,0
555,1970-01-01 00:04:37.500,-0.16311644,0.0452254,0.98431064,-5.4166,-8.274,-0.777,0,1,0,0,0,0,0
556,1970-01-01 00:04:38.000,-0.16086188,0.03472364,0.98507192,3.4258,-4.4394,-0.5026,0,1,0,0,0,0,0
557,1970-01-01 00:04:38.500,-0.16808916,0.05364828,0.98426916,8.0248,-2.0874,-0.5166,0,1,0,0,0,0,0
558,1970-01-01 00:04:39.000,-0.18788488,0.08818404,0.97739324,4.9462,-0.9954,-2.2162,0,1,0,0,0,0,0
559,1970-01-01 00:04:39.500,-0.25494828,0.0764818,0.96197732,-5.6574,47.2836,-9.695,0,1,0,0,0,0,0
560,1970-01-01 00:04:40.000,-0.38425608,0.05086668,0.93457124,9.5634,-48.496,-12.5636,0,1,0,0,0,0,0
561,1970-01-01 00:04:40.500,-0.13535168,0.13785756,0.9543084,4.3442,-14.2562,16.4626,0,1,0,0,0,0,0
562,1970-01-01 00:04:41.000,-0.18382472,0.10479068,0.97570476,-2.212,-10.5322,1.1984,0,1,0,0,0,0,0
563,1970-01-01 00:04:41.500,-0.1656638,0.06631676,0.98281004,-6.7452,-7.5236,-2.6628,0,1,0,0,0,0,0
564,1970-01-01 00:04:42.000,-0.16812088,0.05850876,0.98258312,1.3916,-4.781,-0.0854,0,1,0,0,0,0,0
565,1970-01-01 00:04:42.500,-0.17507488,0.07024028,0.98143144,7.6622,-4.8734,-1.7514,0,1,0,0,0,0,0
566,1970-01-01 00:04:43.000,-0.1127768,0.12403008,1.00539468,5.7736,8.0906,-6.8418,0,1,0,0,0,0,0
567,1970-01-01 00:04:43.500,-0.08251836,0.12610408,0.99875544,7.1512,-8.19,-14.5082,0,1,0,0,0,0,0
568,1970-01-01 00:04:44.000,-0.48334204,0.09044348,0.9255652,-4.9014,-15.9544,20.0144,0,1,0,0,0,0,0
569,1970-01-01 00:04:44.500,-0.1762046,0.10768696,0.97634648,-4.7432,-8.3902,0.7308,0,1,0,0,0,0,0
570,1970-01-01 00:04:45.000,-0.16396068,0.06735864,0.98294912,-5.0302,-6.748,-1.197,0,1,0,0,0,0,0
571,1970-01-01 00:04:45.500,-0.16224048,0.0591944,0.98428624,1.0276,-7.8204,-0.2478,0,1,0,0,0,0,0
572,1970-01-01 00:04:46.000,-0.16482932,0.07882176,0.98171692,7.7714,-1.5344,-2.7062,0,1,0,0,0,0,0
573,1970-01-01 00:04:46.500,-0.1127402,0.12547456,0.98781204,2.6642,12.264,-10.164,0,1,0,0,0,0,0
574,1970-01-01 00:04:47.000,-0.33411164,0.07342204,0.94293068,0.6076,-9.6796,14.959,0,1,0,0,0,0,0
575,1970-01-01 00:04:47.500,0.04876096,0.1282098,1.02332136,-0.2842,-6.4624,4.592,0,1,0,0,0,0,0
576,1970-01-01 00:04:48.000,-0.13206256,0.08821576,0.99491732,16.1168,3.339,-54.0064,0,1,0,0,0,0,0
577,1970-01-01 00:04:48.500,-0.19407516,0.08093236,0.95731692,-3.6134,-26.6,2.5998,0,1,0,0,0,0,0
578,1970-01-01 00:04:49.000,-0.1579046,0.07730896,0.98335904,-1.6086,-6.8236,-0.4018,0,1,0,0,0,0,0
579,1970-01-01 00:04:49.500,-0.16326284,0.06620452,0.98514024,-1.547,-7.1806,-0.791,0,1,0,0,0,0,0
580,1970-01-01 00:04:50.000,-0.15276596,0.07332688,0.9846742,4.1062,-5.7274,-0.9982,0,1,0,0,0,0,0
581,1970-01-01 00:04:50.500,-0.17342788,0.08989692,0.98201704,4.7348,5.488,-6.3224,0,1,0,0,0,0,0
582,1970-01-01 00:04:51.000,-0.23154136,0.09291032,0.96745756,3.0632,16.856,-14.518,0,1,0,0,0,0,0
583,1970-01-01 00:04:51.500,-0.0270108,0.07952692,1.01266588,-1.0724,-28.9842,18.9238,0,1,0,0,0,0,0
584,1970-01-01 00:04:52.000,-0.32130164,0.01582096,0.92056808,-2.66,-17.1024,-21.6916,0,1,0,0,0,0,0
585,1970-01-01 00:04:52.500,-0.15297824,0.05577108,0.98528908,-2.5816,-8.5946,1.4154,0,1,0,0,0,0,0
586,1970-01-01 00:04:53.000,-0.14090756,0.03916932,0.99006172,1.057,-6.7298,-0.4186,0,1,0,0,0,0,0
587,1970-01-01 00:04:53.500,-0.14558992,0.05804516,0.98579172,6.2776,-4.8972,-1.1676,0,1,0,0,0,0,0
588,1970-01-01 00:04:54.000,-0.16729616,0.07710888,0.982283,5.4348,6.055,-2.989,0,1,0,0,0,0,0
589,1970-01-01 00:04:54.500,-0.1540128,0.10000096,0.98786328,-1.6506,10.3922,5.7806,0,1,0,0,0,0,0
590,1970-01-01 00:04:55.000,-0.27566388,0.07260708,0.9602498,4.165,-13.419,-14.2212,0,1,0,0,0,0,0
591,1970-01-01 00:04:55.500,-0.05587356,0.09343736,1.01139952,1.9572,-10.4468,4.5668,0,1,0,0,0,0,0
592,1970-01-01 00:04:56.000,-0.28656336,0.06061936,0.94389936,-3.5112,-20.9006,-3.2886,0,1,0,0,0,0,0
593,1970-01-01 00:04:56.500,-0.15050896,0.04870728,0.98609916,-5.1646,-8.0458,-1.8984,0,1,0,0,0,0,0
594,1970-01-01 00:04:57.000,-0.14604132,0.0298168,0.98739724,-2.8644,-7.1316,-0.735,0,1,0,0,0,0,0
595,1970-01-01 00:04:57.500,-0.14223736,0.03701968,0.9880292,7.6048,-4.0628,-0.3444,0,1,0,0,0,0,0
596,1970-01-01 00:04:58.000,-0.14777128,0.04790452,0.99334108,-3.0632,21.525,6.4008,0,1,0,0,0,0,0
597,1970-01-01 00:04:58.500,-0.36867424,0.06149776,0.92465752,8.7038,-1.9362,0.1904,0,1,0,0,0,0,0
598,1970-01-01 00:04:59.000,0.06904956,0.12220252,1.04237288,3.1052,-19.8002,4.2448,0,1,0,0,0,0,0
599,1970-01-01 00:04:59.500,-0.26917592,0.01580876,0.90874872,-2.331,-19.3298,2.9722,0,1,0,0,0,0,0
600,1970-01-01 00:05:00.000,-0.16210872,0.04600864,0.98407152,-6.2342,-9.9456,-2.2386,0,1,0,0,0,0,0
601,1970-01-01 00:05:00.500,-0.15069928,0.0315004,0.9877608,2.744,-7.329,-0.1022,0,1,0,0,0,0,0
602,1970-01-01 00:05:01.000,-0.15445688,0.05734732,0.98430576,5.677,-4.2924,0.2352,0,1,0,0,0,0,0
603,1970-01-01 00:05:01.500,-0.16345072,0.07343668,0.98484744,5.1072,9.947,-2.6236,0,1,0,0,0,0,0
604,1970-01-01 00:05:02.000,-0.10237996,0.09000428,1.00255208,4.7586,-7.6916,-6.5716,0,1,0,0,0,0,0
605,1970-01-01 00:05:02.500,-0.3222752,0.0656482,0.9371064,4.8636,-16.0258,-6.6262,0,1,0,0,0,0,0
606,1970-01-01 00:05:03.000,-0.18292192,0.20038744,0.9520026,31.1066,-1.2628,9.6166,0,1,0,0,0,0,0
607,1970-01-01 00:05:03.500,-0.15381272,0.12641152,0.98100932,-31.2382,-13.3742,-5.2836,0,1,0,0,0,0,0
608,1970-01-01 00:05:04.000,-0.15778016,0.09570412,0.98212684,4.5108,-3.2116,-1.2908,0,1,0,0,0,0,0
609,1970-01-01 00:05:04.500,-0.17095128,0.10827988,0.97910856,2.5704,-2.3422,-2.3492,0,1,0,0,0,0,0
610,1970-01-01 00:05:05.000,-0.1810236,0.11779588,0.9760732,-5.9066,7.0504,24.15,0,1,0,0,0,0,0
611,1970-01-01 00:05:05.500,-0.0665754,0.10262396,1.00365008,2.8574,0.8008,-19.4348,0,1,0,0,0,0,0
612,1970-01-01 00:05:06.000,-0.17869096,0.06296908,0.98337368,9.3058,-10.8402,-44.9078,0,1,0,0,0,0,0
613,1970-01-01 00:05:06.500,-0.20214424,0.04569144,0.94296728,-2.6712,-14.0224,1.1368,0,1,0,0,0,0,0
614,1970-01-01 00:05:07.000,-0.16091068,0.0247172,0.98603328,-8.1172,-9.7594,-1.5624,0,1,0,0,0,0,0
615,1970-01-01 00:05:07.500,-0.13472704,-0.00220332,0.99090352,1.3524,-10.2452,0.6678,0,1,0,0,0,0,0
616,1970-01-01 00:05:08.000,-0.16083016,0.0382714,0.98592348,9.6026,2.2316,-2.03,0,1,0,0,0,0,0
617,1970-01-01 00:05:08.500,-0.18683568,0.0625128,0.98395684,6.7592,35.2688,-41.2006,0,1,0,0,0,0,0
618,1970-01-01 00:05:09.000,-0.25193,0.04622336,0.96619608,1.3034,-28.0476,29.0822,0,1,0,0,0,0,0
619,1970-01-01 00:05:09.500,-0.13707188,0.04466176,0.94851096,1.2264,-30.2358,-17.6358,0,1,0,0,0,0,0
620,1970-01-01 00:05:10.000,-0.14959396,0.0596824,0.98476448,-0.3304,-9.7314,2.6908,0,1,0,0,0,0,0
621,1970-01-01 00:05:10.500,-0.14213732,0.03156384,0.98772176,-5.1674,-6.3448,-1.2656,0,1,0,0,0,0,0
622,1970-01-01 00:05:11.000,-0.13663756,0.02735972,0.98957372,8.2488,-5.1786,0.9268,0,1,0,0,0,0,0
623,1970-01-01 00:05:11.500,-0.16054468,0.0619272,0.98475228,1.8914,4.7292,-2.7426,0,1,0,0,0,0,0
624,1970-01-01 00:05:12.000,-0.20086568,0.07998564,0.99055704,10.4454,66.689,-2.0594,0,1,0,0,0,0,0
625,1970-01-01 00:05:12.500,-0.40212908,0.0490074,0.92080476,-5.061,-68.7862,-5.1422,0,1,0,0,0,0,0
626,1970-01-01 00:05:13.000,-0.14914012,0.10353408,0.95735352,1.5064,-20.0704,20.454,0,1,0,0,0,0,0
627,1970-01-01 00:05:13.500,-0.18422976,0.06248108,0.9803554,-3.1094,-7.6048,-2.0244,0,1,0,0,0,0,0
628,1970-01-01 00:05:14.000,-0.17234696,0.04769956,0.98200972,-3.423,-8.7108,0.259,0,1,0,0,0,0,0
629,1970-01-01 00:05:14.500,-0.16418516,0.0450058,0.98494992,7.3374,-4.9098,0.3206,0,1,0,0,0,0,0
630,1970-01-01 00:05:15.000,-0.16785004,0.07465668,0.98174376,3.4244,-3.0366,-2.9568,0,1,0,0,0,0,0
631,1970-01-01 00:05:15.500,-0.21346828,0.07871196,0.97005372,-7.8008,-2.2106,26.4992,0,1,0,0,0,0,0
632,1970-01-01 00:05:16.000,-0.10974632,0.0646844,1.00824216,6.2118,14.7084,-17.3838,0,1,0,0,0,0,0
633,1970-01-01 00:05:16.500,-0.33723484,0.04742384,0.95685576,-3.8724,-26.705,-2.933,0,1,0,0,0,0,0
634,1970-01-01 00:05:17.000,-0.17824932,0.02268712,0.98142656,-3.5294,-5.138,0.8274,0,1,0,0,0,0,0
635,1970-01-01 00:05:17.500,-0.17361576,0.03187128,0.983442,6.6696,-10.0002,2.5186,0,1,0,0,0,0,0
636,1970-01-01 00:05:18.000,-0.1601006,0.05471944,0.98436188,4.9042,5.4992,-0.5824,0,1,0,0,0,0,0
637,1970-01-01 00:05:18.500,-0.13597144,0.0591212,0.99145496,3.1864,3.3992,-18.0628,0,1,0,0,0,0,0
638,1970-01-01 00:05:19.000,-0.17929852,0.08782292,0.93739188,1.1452,-20.8558,13.9272,0,1,0,0,0,0,0
639,1970-01-01 00:05:19.500,-0.1692262,0.07511052,0.98120208,-1.841,-9.0678,1.6002,0,1,0,0,0,0,0
640,1970-01-01 00:05:20.000,-0.15820716,0.05452668,0.98434968,-1.6534,-9.0454,-0.7028,0,1,0,0,0,0,0
641,1970-01-01 00:05:20.500,-0.15189976,0.0772992,0.98325168,9.9036,-2.933,0.3906,0,1,0,0,0,0,0
642,1970-01-01 00:05:21.000,-0.19345052,0.09531128,0.97542904,-7.1148,10.6288,10.955,0,1,0,0,0,0,0
643,1970-01-01 00:05:21.500,0.01486448,0.00819352,1.03165396,3.0674,-11.2686,2.0244,0,1,0,0,0,0,0
644,1970-01-01 00:05:22.000,-0.30766448,0.13458796,0.90717492,-2.555,-12.7106,-2.3394,0,1,0,0,0,0,0
645,1970-01-01 00:05:22.500,-0.16534416,0.05216964,0.98405444,-1.3272,-8.4182,-0.1372,0,1,0,0,0,0,0
646,1970-01-01 00:05:23.000,-0.16418516,0.06299592,0.98322972,3.7562,-4.5584,-1.4,0,1,0,0,0,0,0
647,1970-01-01 00:05:23.500,-0.14702464,0.07109184,0.99835528,10.4944,28.4172,-27.041,0,1,0,0,0,0,0
648,1970-01-01 00:05:24.000,-0.1606252,0.10703792,0.98506948,20.7746,-7.0196,-84.6034,0,1,0,0,0,0,0
649,1970-01-01 00:05:24.500,-0.05659092,0.02612752,0.9951784,1.6198,-11.5332,9.9344,0,1,0,0,0,0,0
650,1970-01-01 00:05:25.000,-0.31197352,0.14617552,0.89548,-0.4634,-12.5006,-2.8364,0,1,0,0,0,0,0
651,1970-01-01 00:05:25.500,-0.17491384,0.06839076,0.982405,-7.3556,-7.7406,-1.6954,0,1,0,0,0,0,0
652,1970-01-01 00:05:26.000,-0.16338972,0.06163196,0.98475472,5.481,-4.5052,0.847,0,1,0,0,0,0,0
653,1970-01-01 00:05:26.500,-0.18396136,0.08485588,0.97935012,4.5234,3.9256,-2.0468,0,1,0,0,0,0,0
654,1970-01-01 00:05:27.000,-0.35322416,0.07686732,0.93794576,-4.6494,82.3018,-7.3052,0,1,0,0,0,0,0
655,1970-01-01 00:05:27.500,-0.39140772,0.06862012,0.92648752,-1.2908,-35.3598,12.747,0,1,0,0,0,0,0
656,1970-01-01 00:05:28.000,-0.3162728,0.07080392,0.93398808,3.5084,-68.9346,1.9922,0,1,0,0,0,0,0
657,1970-01-01 00:05:28.500,-0.1899418,0.10455644,0.97244004,-2.4024,-7.315,-0.546,0,1,0,0,0,0,0
658,1970-01-01 00:05:29.000,-0.1808528,0.04289764,0.9824782,-9.0538,-7.7378,-3.2214,0,1,0,0,0,0,0
659,1970-01-01 00:05:29.500,-0.16703264,0.03709288,0.9843204,4.242,-9.0734,1.9586,0,1,0,0,0,0,0
660,1970-01-01 00:05:30.000,-0.18152136,0.05762304,0.98172424,5.0022,6.8866,-3.9186,0,1,0,0,0,0,0
661,1970-01-01 00:05:30.500,-0.42355472,0.06060228,0.87969808,-0.3262,111.6136,-12.1618,0,1,0,0,0,0,0
662,1970-01-01 00:05:31.000,-0.33827916,0.07531548,0.926651,-10.6904,-121.8896,22.0318,0,1,0,0,0,0,0
663,1970-01-01 00:05:31.500,-0.25699544,0.04948076,0.93108448,14.0266,-10.7758,-28.4802,0,1,0,0,0,0,0
664,1970-01-01 00:05:32.000,-0.18480804,0.11358932,0.97355024,4.0194,-10.7366,6.0494,0,1,0,0,0,0,0
665,1970-01-01 00:05:32.500,-0.18059904,0.09223688,0.97825212,-7.2338,-5.8828,-1.9334,0,1,0,0,0,0,0
666,1970-01-01 00:05:33.000,-0.17842744,0.07549848,0.98010164,0.9954,-5.6112,-0.5544,0,1,0,0,0,0,0
667,1970-01-01 00:05:33.500,-0.16101804,0.08563424,0.9848572,4.8076,8.7598,-17.1416,0,1,0,0,0,0,0
668,1970-01-01 00:05:34.000,-0.20990344,0.08536828,0.97167876,3.15,-1.3888,-13.9664,0,1,0,0,0,0,0
669,1970-01-01 00:05:34.500,-0.1839272,0.06471856,0.97967464,2.4066,-14.4998,5.6392,0,1,0,0,0,0,0
670,1970-01-01 00:05:35.000,-0.24049616,0.10185048,0.95831,-3.9326,-15.225,9.8812,0,1,0,0,0,0,0
671,1970-01-01 00:05:35.500,-0.1753628,0.06119032,0.98043592,-3.633,-9.1196,-0.0098,0,1,0,0,0,0,0
672,1970-01-01 00:05:36.000,-0.15806076,0.0484218,0.9847718,-2.5368,-9.2064,0.1554,0,1,0,0,0,0,0
673,1970-01-01 00:05:36.500,-0.15688712,0.0562908,0.9851744,6.524,-3.6022,-1.1074,0,1,0,0,0,0,0
674,1970-01-01 00:05:37.000,-0.160125,0.07274128,0.98316384,4.3918,-3.8808,-2.072,0,1,0,0,0,0,0
675,1970-01-01 00:05:37.500,-0.14772248,0.09004576,0.98554284,-3.9088,11.8454,15.6114,0,1,0,0,0,0,0
676,1970-01-01 00:05:38.000,-0.19282832,0.08279652,0.97949164,0.9506,-4.025,4.6326,0,1,0,0,0,0,0
677,1970-01-01 00:05:38.500,-0.14878632,0.05127172,0.95172932,3.4776,-20.9524,-24.3166,0,1,0,0,0,0,0
678,1970-01-01 00:05:39.000,-0.18351728,0.07652328,0.97807156,1.2334,-7.9786,2.8042,0,1,0,0,0,0,0
679,1970-01-01 00:05:39.500,-0.1802062,0.07950252,0.9790378,4.6004,-5.2836,1.911,0,1,0,0,0,0,0
680,1970-01-01 00:05:40.000,-0.1855254,0.10187488,0.97536316,-0.1078,-5.0036,-2.7314,0,1,0,0,0,0,0
681,1970-01-01 00:05:40.500,-0.20021176,0.09969352,0.97353316,5.6,1.0122,2.1154,0,1,0,0,0,0,0
682,1970-01-01 00:05:41.000,-0.09117548,0.12387636,1.01671384,-8.6464,6.2468,12.0484,0,1,0,0,0,0,0
683,1970-01-01 00:05:41.500,-0.31658268,0.09038736,0.9509656,5.7134,-10.206,-12.327,0,1,0,0,0,0,0
684,1970-01-01 00:05:42.000,-0.12243188,0.08605148,0.99496124,22.8956,-22.5876,-141.4896,0,1,0,0,0,0,0
685,1970-01-01 00:05:42.500,-0.17897644,0.06516508,0.95735108,-0.1694,-9.0454,9.1504,0,1,0,0,0,0,0
686,1970-01-01 00:05:43.000,-0.169702,0.06690968,0.98271,-11.0726,-9.3212,-1.8732,0,1,0,0,0,0,0
687,1970-01-01 00:05:43.500,-0.16294808,0.03561912,0.98555992,-1.7752,-7.749,-1.071,0,1,0,0,0,0,0
688,1970-01-01 00:05:44.000,-0.16364348,0.0357826,0.98641148,5.3368,-2.5018,-3.0772,0,1,0,0,0,0,0
689,1970-01-01 00:05:44.500,-0.28779556,0.07031836,0.945622,2.1448,65.2974,4.5528,0,1,0,0,0,0,0
690,1970-01-01 00:05:45.000,-0.49892388,0.06145872,0.87213408,-2.5088,12.4096,8.1284,0,1,0,0,0,0,0
691,1970-01-01 00:05:45.500,-0.20416456,0.036356,0.98696536,0.8092,-87.276,-3.2592,0,1,0,0,0,0,0
692,1970-01-01 00:05:46.000,-0.2330688,0.07375144,0.91028104,2.2092,-6.7424,-21.8386,0,1,0,0,0,0,0
693,1970-01-01 00:05:46.500,-0.18871936,0.05957748,0.97965268,0.0672,-9.247,-0.0196,0,1,0,0,0,0,0
694,1970-01-01 00:05:47.000,-0.17547504,0.05171336,0.98222444,-5.5356,-9.2078,-0.6944,0,1,0,0,0,0,0
695,1970-01-01 00:05:47.500,-0.16956048,0.04490576,0.9833322,6.2748,-4.0068,-1.2684,0,1,0,0,0,0,0
696,1970-01-01 00:05:48.000,-0.21005716,0.08422392,0.97497276,5.2878,40.908,7.9408,0,1,0,0,0,0,0
697,1970-01-01 00:05:48.500,-0.12861484,0.06640948,1.02899192,-9.5928,-28.0742,27.5688,0,1,0,0,0,0,0
698,1970-01-01 00:05:49.000,-0.3988058,0.12335664,0.91461936,17.4342,-20.9132,-72.5186,0,1,0,0,0,0,0
699,1970-01-01 00:05:49.500,-0.21327308,0.10141616,0.93513976,-7.9688,-14.0854,17.465,0,1,0,0,0,0,0
700,1970-01-01 00:05:50.000,-0.17980116,0.05912608,0.97969172,-8.33,-8.6282,-1.9446,0,1,0,0,0,0,0
701,1970-01-01 00:05:50.500,-0.18090404,0.0478484,0.98053108,7.567,0.0658,3.2284,0,1,0,0,0,0,0
702,1970-01-01 00:05:51.000,-0.20002876,0.08360172,0.97610004,6.5548,-1.3664,-5.3522,0,1,0,0,0,0,0
703,1970-01-01 00:05:51.500,-0.17605088,0.11305496,0.98362256,-0.5334,29.1928,-5.8324,0,1,0,0,0,0,0
704,1970-01-01 00:05:52.000,-0.33972852,0.08688352,0.94260128,-2.8812,-39.8804,3.2368,0,1,0,0,0,0,0
705,1970-01-01 00:05:52.500,-0.17563364,0.08006616,0.95964956,-0.1498,-11.34,5.3312,0,1,0,0,0,0,0
706,1970-01-01 00:05:53.000,-0.18237536,0.0853146,0.97888896,5.201,-11.424,6.1838,0,1,0,0,0,0,0
707,1970-01-01 00:05:53.500,-0.16516848,0.12036276,0.9758414,5.2654,-5.4194,-0.1036,0,1,0,0,0,0,0
708,1970-01-01 00:05:54.000,-0.17254216,0.08743496,0.97974052,-8.7514,-5.8996,-2.6306,0,1,0,0,0,0,0
709,1970-01-01 00:05:54.500,-0.17902036,0.08755208,0.97860348,5.4754,4.8258,-4.5528,0,1,0,0,0,0,0
710,1970-01-01 00:05:55.000,-0.0569008,0.15238044,1.00636336,-2.8672,5.0442,3.7744,0,1,0,0,0,0,0
711,1970-01-01 00:05:55.500,-0.42162956,0.06068036,0.92473072,-3.619,2.9596,28.679,0,1,0,0,0,0,0
712,1970-01-01 00:05:56.000,0.00583404,0.09117792,1.03644856,3.892,-29.3734,-27.7144,0,1,0,0,0,0,0
713,1970-01-01 00:05:56.500,-0.34302496,0.0123586,0.88090588,-4.9756,-7.1512,-0.007,0,1,0,0,0,0,0
714,1970-01-01 00:05:57.000,-0.18133104,0.04477156,0.98125332,-3.2466,-7.2156,-1.7864,0,1,0,0,0,0,0
715,1970-01-01 00:05:57.500,-0.1768268,0.05602728,0.98256604,5.8548,-4.4142,0.9646,0,1,0,0,0,0,0
716,1970-01-01 00:05:58.000,-0.20292748,0.09882244,0.97209356,8.5064,4.9014,6.3,0,1,0,0,0,0,0
717,1970-01-01 00:05:58.500,-0.07725772,0.0829356,1.04737,15.778,8.1886,-17.6666,0,1,0,0,0,0,0
718,1970-01-01 00:05:59.000,-0.53675364,0.17239332,0.89279112,-8.3972,-16.0258,30.2358,0,1,0,0,0,0,0
719,1970-01-01 00:05:59.500,-0.36937208,0.11320136,0.96258,-2.4822,-3.6526,-4.879,0,1,0,0,0,0,1
720,1970-01-01 00:06:00.000,-0.56516988,0.25367216,0.8191446,11.284,-11.382,2.359,0,0,0,0,0,0,1
721,1970-01-01 00:06:00.500,-0.56293484,0.21261916,0.84184148,4.6368,-1.6814,-0.6132,0,0,0,0,0,0,1
722,1970-01-01 00:06:01.000,-0.5381542,0.2364848,0.80304304,9.2778,-13.2454,-0.3556,0,0,0,0,0,0,1
723,1970-01-01 00:06:01.500,-0.56197836,0.19863796,0.86782016,2.0664,-8.5638,10.374,0,0,0,0,0,0,1
724,1970-01-01 00:06:02.000,-0.56374736,0.24030584,0.84083132,8.9586,-3.486,2.8952,0,0,0,0,0,0,1
725,1970-01-01 00:06:02.500,-0.56752448,0.22737628,0.8316252,2.4402,-3.1402,0.7812,0,0,0,0,0,0,1
726,1970-01-01 00:06:03.000,-0.57306572,0.22238648,0.827038,2.1812,-9.9694,2.8742,0,0,0,0,0,0,1
727,1970-01-01 00:06:03.500,-0.57384164,0.23282968,0.83641492,1.3216,-5.215,1.4574,0,0,0,0,0,0,1
728,1970-01-01 00:06:04.000,-0.58170088,0.2556632,0.81644352,3.4832,-7.0826,-7.994,0,0,0,0,0,0,1
729,1970-01-01 00:06:04.500,-0.5690568,0.2576152,0.81049968,2.9652,-16.4066,-3.2116,0,0,0,0,0,0,1
730,1970-01-01 00:06:05.000,-0.57437356,0.25170552,0.83732992,1.6128,-1.617,-1.2628,0,0,0,0,0,0,1
731,1970-01-01 00:06:05.500,-0.53667068,0.24399512,0.83187408,2.9736,-15.9194,9.9218,0,0,0,0,0,0,1
732,1970-01-01 00:06:06.000,-0.5330424,0.24418056,0.81463792,4.8006,2.471,-5.8016,0,0,0,0,0,0,1
733,1970-01-01 00:06:06.500,-0.58021736,0.230519,0.83713472,5.845,6.3728,12.3998,0,0,0,0,0,0,1
734,1970-01-01 00:06:07.000,-0.58368704,0.22936732,0.823866,-0.4816,-4.494,17.6274,0,0,0,0,0,0,1
735,1970-01-01 00:06:07.500,-0.5876862,0.20758788,0.82823116,-0.9268,-2.5704,17.5952,0,0,0,0,0,0,1
736,1970-01-01 00:06:08.000,-0.57515924,0.20976924,0.83823516,5.0358,-1.9334,12.8268,0,0,0,0,0,0,1
737,1970-01-01 00:06:08.500,-0.57133332,0.22302088,0.84322252,5.0568,-7.2408,1.463,0,0,0,0,0,0,1
738,1970-01-01 00:06:09.000,-0.5859538,0.27489284,0.82156996,-4.6984,-5.8282,-10.8906,0,0,0,0,0,0,1
739,1970-01-01 00:06:09.500,-0.5639206,0.22187652,0.83406276,2.1392,-9.1896,1.8662,0,0,0,0,0,0,1
740,1970-01-01 00:06:10.000,-0.58168136,0.22275492,0.81974972,-4.41,-3.1346,2.7244,0,0,0,0,0,0,1
741,1970-01-01 00:06:10.500,-0.56507472,0.23611148,0.82827996,3.9116,-11.2308,-8.6366,0,0,0,0,0,0,1
742,1970-01-01 00:06:11.000,-0.54518628,0.22405056,0.85269948,-4.7684,-20.4694,-19.4768,0,0,0,0,0,0,1
743,1970-01-01 00:06:11.500,-0.52587612,0.15404208,0.86517764,-0.7616,2.3324,14.6412,0,0,0,0,0,0,1
744,1970-01-01 00:06:12.000,-0.57199944,0.23751936,0.84188296,-4.1916,1.0962,-3.7198,0,0,0,0,0,0,1
745,1970-01-01 00:06:12.500,-0.58623196,0.22854016,0.8289656,4.025,-6.8208,-10.1514,0,0,0,0,0,0,1
746,1970-01-01 00:06:13.000,-0.57201164,0.252845,0.83321364,6.5408,-7.4592,0.4704,0,0,0,0,0,0,1
747,1970-01-01 00:06:13.500,-0.570655,0.22514368,0.82615716,4.5416,4.6522,10.5154,0,0,0,0,0,0,1
748,1970-01-01 00:06:14.000,-0.55675676,0.24084752,0.80224516,2.303,-22.4714,-17.5532,0,0,0,0,0,0,1
749,1970-01-01 00:06:14.500,-0.54887312,0.26400312,0.81831256,5.6728,-18.557,-20.1264,0,0,0,0,0,0,1
750,1970-01-01 00:06:15.000,-0.54432984,0.21918032,0.825025,4.3302,0.3276,12.0694,0,0,0,0,0,0,1
751,1970-01-01 00:06:15.500,-0.53038524,0.24172348,0.80415324,-2.7048,-11.8216,-5.537,0,0,0,0,0,0,1
752,1970-01-01 00:06:16.000,-0.57279488,0.23415216,0.8280262,-1.8452,-9.1588,-6.9608,0,0,0,0,0,0,1
753,1970-01-01 00:06:16.500,-0.5631276,0.22100544,0.80774248,-3.815,-3.794,0.5334,0,0,0,0,0,0,1
754,1970-01-01 00:06:17.000,-0.54922936,0.23104848,0.8239636,-3.9396,-4.109,17.3586,0,0,0,0,0,0,1
755,1970-01-01 00:06:17.500,-0.57025484,0.16874064,0.85389996,4.1118,22.064,49.8344,0,0,0,0,0,0,1
756,1970-01-01 00:06:18.000,-0.57973424,0.25771524,0.79611344,3.7856,-11.8412,-2.4654,0,0,0,0,0,0,1
757,1970-01-01 00:06:18.500,-0.55325536,0.25685392,0.79653556,0.28,-8.449,1.3748,0,0,0,0,0,0,1
758,1970-01-01 00:06:19.000,-0.56339356,0.26357124,0.82197256,-0.5978,-7.2324,5.3256,0,0,0,0,0,0,1
759,1970-01-01 00:06:19.500,-0.56002148,0.2296284,0.80406296,-0.5068,-18.0908,9.9358,0,0,0,0,0,0,1
760,1970-01-01 00:06:20.000,-0.54775804,0.17721232,0.81705108,4.7544,16.5844,26.2682,0,0,0,0,0,0,1
761,1970-01-01 00:06:20.500,-0.5634814,0.24964616,0.81723408,-5.9612,-17.8626,-0.2954,0,0,0,0,0,0,1
762,1970-01-01 00:06:21.000,-0.56192956,0.2159156,0.81655088,1.2558,-13.1264,-0.6468,0,0,0,0,0,0,1
763,1970-01-01 00:06:21.500,-0.55746924,0.20377172,0.81419872,6.6654,-3.5364,10.6876,0,0,0,0,0,0,1
764,1970-01-01 00:06:22.000,-0.55886004,0.21372936,0.82027432,-1.1816,-12.7092,-2.835,0,0,0,0,0,0,1
765,1970-01-01 00:06:22.500,-0.56198568,0.20980584,0.82526412,4.7446,-12.719,0.5684,0,0,0,0,0,0,1
766,1970-01-01 00:06:23.000,-0.54879748,0.26881968,0.80706172,-0.3612,-7.2856,0.3066,0,0,0,0,0,0,1
767,1970-01-01 00:06:23.500,-0.55666892,0.22382364,0.80736672,-4.1244,-6.6234,-2.8686,0,0,0,0,0,0,1
768,1970-01-01 00:06:24.000,-0.57397828,0.1878556,0.84064832,5.642,-7.7364,8.3146,0,0,0,0,0,0,1
769,1970-01-01 00:06:24.500,-0.5530504,0.23883452,0.8199132,-4.6998,-14.1442,-6.3476,0,0,0,0,0,0,1
770,1970-01-01 00:06:25.000,-0.5360924,0.24273364,0.80083728,4.9952,-9.9106,-26.8926,0,0,0,0,0,0,1
771,1970-01-01 00:06:25.500,-0.56851756,0.20518692,0.83235964,6.9902,-12.0666,-3.9732,0,0,0,0,0,0,1
772,1970-01-01 00:06:26.000,-0.54764824,0.23528676,0.80826952,-3.0408,-11.4422,-5.9766,0,0,0,0,0,0,1
773,1970-01-01 00:06:26.500,-0.56338624,0.21978544,0.81424264,1.6422,-6.776,-2.5858,0,0,0,0,0,0,1
774,1970-01-01 00:06:27.000,-0.5728754,0.2331664,0.81898356,-1.4714,-14.245,-1.267,0,0,0,0,0,0,1
775,1970-01-01 00:06:27.500,-0.56077544,0.24616184,0.79644528,-1.0976,-8.4532,0.7378,0,0,0,0,0,0,1
776,1970-01-01 00:06:28.000,-0.56602632,0.24480764,0.7922802,-0.3388,-1.799,4.1986,0,0,0,0,0,0,1
777,1970-01-01 00:06:28.500,-0.57922184,0.24486132,0.80878192,-0.7336,-6.9972,11.3092,0,0,0,0,0,0,1
778,1970-01-01 00:06:29.000,-0.57299496,0.248209,0.81603604,-1.6002,-9.1126,0.5586,0,0,0,0,0,0,1
779,1970-01-01 00:06:29.500,-0.56974,0.22304528,0.8095432,-2.0538,-2.4066,0.8204,0,0,0,0,0,0,1
780,1970-01-01 00:06:30.000,-0.5684346,0.19342124,0.8416902,-0.4032,-2.0104,13.8642,0,0,0,0,0,0,1
781,1970-01-01 00:06:30.500,-0.55383608,0.21389772,0.82202136,-3.0674,-13.6962,15.967,0,0,0,0,0,0,1
782,1970-01-01 00:06:31.000,-0.56250052,0.22411644,0.81374,-14.0322,2.4024,13.1992,0,0,0,0,0,0,1
783,1970-01-01 00:06:31.500,-0.56716092,0.263154,0.82578872,16.3912,-15.5526,-9.2834,0,0,0,0,0,0,1
784,1970-01-01 00:06:32.000,-0.54061372,0.21058664,0.79385644,-7.595,-3.2662,-10.5588,0,0,0,0,0,0,1
785,1970-01-01 00:06:32.500,-0.56034356,0.2101572,0.81935444,16.0356,-12.1744,-6.1306,0,0,0,0,0,0,1
786,1970-01-01 00:06:33.000,-0.55712764,0.23851976,0.83464348,-10.3432,-2.9162,-15.8354,0,0,0,0,0,0,1
787,1970-01-01 00:06:33.500,-0.55413376,0.2017636,0.82787736,2.9078,-2.6152,4.7544,0,0,0,0,0,0,1
788,1970-01-01 00:06:34.000,-0.58292332,0.21155044,0.80017604,0.7462,-8.5694,9.4472,0,0,0,0,0,0,1
789,1970-01-01 00:06:34.500,-0.54054296,0.23550392,0.7869732,-6.5436,-13.2356,-2.6208,0,0,0,0,0,0,1
790,1970-01-01 00:06:35.000,-0.55986044,0.24029852,0.84135836,-6.1656,7.7966,-7.5572,0,0,0,0,0,0,1
791,1970-01-01 00:06:35.500,-0.58616852,0.22588788,0.82838976,6.286,-3.9536,0.6132,0,0,0,0,0,0,1
792,1970-01-01 00:06:36.000,-0.55132532,0.2357284,0.75912548,9.345,-17.304,13.1908,0,0,0,0,0,0,1
793,1970-01-01 00:06:36.500,-0.55894544,0.21338532,0.84470848,16.3156,-7.5012,-4.9574,0,0,0,0,0,0,1
794,1970-01-01 00:06:37.000,-0.5478044,0.21782612,0.8505474,18.0446,0.1134,-4.8244,0,0,0,0,0,0,1
795,1970-01-01 00:06:37.500,-0.56951064,0.22619044,0.84722412,15.456,-4.2112,9.9484,0,0,0,0,0,0,1
796,1970-01-01 00:06:38.000,-0.54772632,0.22849136,0.830698,12.4404,-5.0274,2.0412,0,0,0,0,0,0,1
797,1970-01-01 00:06:38.500,-0.55489992,0.22878416,0.79165068,6.2608,-12.25,2.0692,0,0,0,0,0,0,1
798,1970-01-01 00:06:39.000,-0.54972712,0.19225492,0.79750912,12.9906,-4.0012,16.3814,0,0,0,0,0,0,1
799,1970-01-01 00:06:39.500,-0.548878,0.16234784,0.80810848,15.3034,6.5996,9.5816,0,0,0,0,0,0,1
800,1970-01-01 00:06:40.000,-0.55376776,0.17145392,0.82860936,16.5382,1.8508,7.4242,0,0,0,0,0,0,1
801,1970-01-01 00:06:40.500,-0.55842816,0.2082418,0.84058488,10.822,-1.3104,-4.8692,0,0,0,0,0,0,1
802,1970-01-01 00:06:41.000,-0.54794104,0.1794742,0.82705752,14.4284,-4.2602,1.3594,0,0,0,0,0,0,1
803,1970-01-01 00:06:41.500,-0.54279752,0.18323424,0.84691424,3.5896,-1.5876,3.528,0,0,0,0,0,0,1
804,1970-01-01 00:06:42.000,-0.53670484,0.21024748,0.84850756,6.6892,3.0912,-10.1234,0,0,0,0,0,0,1
805,1970-01-01 00:06:42.500,-0.54746768,0.1948828,0.83349912,2.0398,-2.3716,5.593,0,0,0,0,0,0,1
806,1970-01-01 00:06:43.000,-0.55920896,0.20671924,0.80989456,10.6022,4.6998,16.387,0,0,0,0,0,0,1
807,1970-01-01 00:06:43.500,-0.56227848,0.20542116,0.81246876,8.5848,-4.3162,-10.3684,0,0,0,0,0,0,1
808,1970-01-01 00:06:44.000,-0.610061,0.24447336,0.85308988,12.8688,-8.8564,-9.8756,0,0,0,0,0,0,1
809,1970-01-01 00:06:44.500,-0.57965372,0.20353504,0.81873956,11.0166,-5.3578,6.797,0,0,0,0,0,0,1
810,1970-01-01 00:06:45.000,-0.55573196,0.21355856,0.79154576,11.2504,-10.4678,28.4382,0,0,0,0,0,0,1
811,1970-01-01 00:06:45.500,-0.55526836,0.19803528,0.81369852,5.8674,-9.1462,1.4882,0,0,0,0,0,0,1
812,1970-01-01 00:06:46.000,-0.5694106,0.24401952,0.89438932,8.4882,-12.5216,-7.3248,0,0,0,0,0,0,1
813,1970-01-01 00:06:46.500,-0.59053124,0.2262002,0.82418564,6.8026,-31.64,-14.6636,0,0,0,0,0,0,1
814,1970-01-01 00:06:47.000,-0.5532944,0.261751,0.79087964,0.8218,-15.8564,-13.8138,0,0,0,0,0,0,1
815,1970-01-01 00:06:47.500,-0.54495448,0.25910116,0.7996612,4.1832,-11.5598,6.545,0,0,0,0,0,0,1
816,1970-01-01 00:06:48.000,-0.54667956,0.1935652,0.85278732,3.0156,8.6282,-5.4866,0,0,0,0,0,0,1
817,1970-01-01 00:06:48.500,-0.55670552,0.25074172,0.84655556,6.272,-12.1996,-3.8052,0,0,0,0,0,0,1
818,1970-01-01 00:06:49.000,-0.55322852,0.23838068,0.82479564,5.3872,-4.151,4.9952,0,0,0,0,0,0,1
819,1970-01-01 00:06:49.500,-0.55637368,0.24757948,0.81400352,9.8602,-13.9468,3.024,0,0,0,0,0,0,1
820,1970-01-01 00:06:50.000,-0.54247056,0.228811,0.80184012,4.291,-8.1942,-0.3626,0,0,0,0,0,0,1
821,1970-01-01 00:06:50.500,-0.5326032,0.21548372,0.78242992,-0.2044,-5.103,10.7422,0,0,0,0,0,0,1
822,1970-01-01 00:06:51.000,-0.51935156,0.19041516,0.83383096,8.1172,12.236,23.2428,0,0,0,0,0,0,1
823,1970-01-01 00:06:51.500,-0.52806968,0.2196366,0.84902972,10.4048,10.6148,11.6606,0,0,0,0,0,0,1
824,1970-01-01 00:06:52.000,-0.5556124,0.24229932,0.80080556,1.813,0.2366,5.0484,0,0,0,0,0,0,1
825,1970-01-01 00:06:52.500,-0.5620296,0.19318212,0.82498596,6.741,-10.9046,-1.7962,0,0,0,0,0,0,1
826,1970-01-01 00:06:53.000,-0.5468894,0.24651564,0.83403836,5.2136,-11.5122,-4.571,0,0,0,0,0,0,1
827,1970-01-01 00:06:53.500,-0.62606008,0.22969184,0.79520332,6.0746,-4.1412,7.0168,0,0,0,0,0,0,1
828,1970-01-01 00:06:54.000,-0.70687288,0.23008956,0.72854496,16.5172,-3.4608,6.5184,0,0,0,0,0,0,1
829,1970-01-01 00:06:54.500,-0.68227524,0.2021174,0.73642616,5.6196,4.2966,3.0058,0,0,0,0,0,0,1
830,1970-01-01 00:06:55.000,-0.69705676,0.23645308,0.7213616,12.9346,-9.6754,-1.4938,0,0,0,0,0,0,1
831,1970-01-01 00:06:55.500,-0.68560096,0.23156332,0.7084052,11.732,-9.3912,5.9234,0,0,0,0,0,0,1
832,1970-01-01 00:06:56.000,-0.67138308,0.2304214,0.71989272,5.439,-8.918,5.1758,0,0,0,0,0,0,1
833,1970-01-01 00:06:56.500,-0.6784664,0.2173674,0.74640576,13.699,-1.3216,1.6954,0,0,0,0,0,0,1
834,1970-01-01 00:06:57.000,-0.69347972,0.24632288,0.71223112,9.9526,-13.5758,-6.0648,0,0,0,0,0,0,1
835,1970-01-01 00:06:57.500,-0.69061028,0.23511108,0.7156032,10.2704,-3.738,9.5942,0,0,0,0,0,0,1
836,1970-01-01 00:06:58.000,-0.67690236,0.2272006,0.70505752,2.4934,-6.5072,7.8694,0,0,0,0,0,0,1
837,1970-01-01 00:06:58.500,-0.68594012,0.21481272,0.72966004,8.6254,-5.11,0.4326,0,0,0,0,0,0,1
838,1970-01-01 00:06:59.000,-0.67654612,0.22875244,0.72373328,5.5818,-5.9878,6.8656,0,0,0,0,0,0,1
839,1970-01-01 00:06:59.500,-0.68278276,0.22928192,0.7181408,7.1358,-10.4874,1.3888,0,0,0,0,0,0,1
840,1970-01-01 00:07:00.000,-0.67794668,0.23005784,0.72541444,10.8234,2.0076,-3.6624,0,0,0,0,0,0,1
841,1970-01-01 00:07:00.500,-0.67190768,0.19820364,0.73165352,5.4376,-1.5232,14.0602,0,0,0,0,0,0,1
842,1970-01-01 00:07:01.000,-0.65513268,0.22155932,0.7234478,7.8946,-3.4748,0.3962,0,0,0,0,0,0,1
843,1970-01-01 00:07:01.500,-0.66120096,0.22190336,0.72202528,4.6438,-3.4454,1.4882,0,0,0,0,0,0,1
844,1970-01-01 00:07:02.000,-0.66831844,0.20841992,0.73166816,3.92,-3.9466,2.4976,0,0,0,0,0,0,1
845,1970-01-01 00:07:02.500,-0.66283088,0.21329992,0.74263108,5.9626,-2.6488,3.087,0,0,0,0,0,0,1
846,1970-01-01 00:07:03.000,-0.64892776,0.20369608,0.7256072,4.5752,-5.0316,3.8724,0,0,0,0,0,0,1
847,1970-01-01 00:07:03.500,-0.6543348,0.2198806,0.73305164,5.5356,-7.4032,7.056,0,0,0,0,0,0,1
848,1970-01-01 00:07:04.000,-0.65885856,0.22384316,0.74058392,7.4172,-7.8288,-2.3296,0,0,0,0,0,0,1
849,1970-01-01 00:07:04.500,-0.6676084,0.22063944,0.73910528,4.501,-13.7648,-3.0282,0,0,0,0,0,0,1
850,1970-01-01 00:07:05.000,-0.6567992,0.24228956,0.75744188,3.885,-4.5304,-10.1724,0,0,0,0,0,0,1
851,1970-01-01 00:07:05.500,-0.66128392,0.22706396,0.72951852,2.5508,-13.629,-5.8282,0,0,0,0,0,0,1
852,1970-01-01 00:07:06.000,-0.64102948,0.21307056,0.74077668,6.6318,-1.3972,8.3006,0,0,0,0,0,0,1
853,1970-01-01 00:07:06.500,-0.6550912,0.23383008,0.75391852,7.1204,-6.9902,-4.263,0,0,0,0,0,0,1
854,1970-01-01 00:07:07.000,-0.65229496,0.22922092,0.74838216,3.9382,-11.0376,-2.4192,0,0,0,0,0,0,1
855,1970-01-01 00:07:07.500,-0.6388652,0.22577808,0.73875148,3.8346,-3.2522,2.5914,0,0,0,0,0,0,1
856,1970-01-01 00:07:08.000,-0.64364516,0.21872404,0.75027316,6.0088,-7.133,-0.539,0,0,0,0,0,0,1
857,1970-01-01 00:07:08.500,-0.64036336,0.23177316,0.75426256,1.379,-4.2126,-1.8578,0,0,0,0,0,0,1
858,1970-01-01 00:07:09.000,-0.64232268,0.21711852,0.75013408,4.4128,-8.6436,2.835,0,0,0,0,0,0,1
859,1970-01-01 00:07:09.500,-0.62204872,0.21026944,0.74393648,3.8206,-7.609,11.6732,0,0,0,0,0,0,1
860,1970-01-01 00:07:10.000,-0.63535892,0.22717132,0.75967448,0.5096,-3.2382,-17.5476,0,0,0,0,0,0,1
861,1970-01-01 00:07:10.500,-0.62879532,0.23490856,0.7382708,5.0582,-7.0602,2.2568,0,0,0,0,0,0,1
862,1970-01-01 00:07:11.000,-0.6218096,0.22504364,0.73231232,5.0008,-5.7148,10.8164,0,0,0,0,0,0,1
863,1970-01-01 00:07:11.500,-0.58855972,0.23039212,0.75339636,5.1716,17.3474,1.7458,0,0,0,0,0,0,1
864,1970-01-01 00:07:12.000,-0.59741204,0.18913904,0.79130176,4.1496,5.11,20.342,0,0,0,0,0,0,1
865,1970-01-01 00:07:12.500,-0.61865224,0.22871584,0.80435576,31.5574,9.485,-16.7636,0,0,0,0,0,0,1
866,1970-01-01 00:07:13.000,-0.6660712,0.23963728,0.81705596,11.3162,-15.3846,-27.3182,0,0,0,0,0,0,1
867,1970-01-01 00:07:13.500,-0.61374052,0.28640476,0.75547524,26.8688,-26.4488,4.6522,0,0,0,0,0,0,1
868,1970-01-01 00:07:14.000,-0.63854068,0.24976572,0.72562184,-0.0112,-6.468,30.7776,0,0,0,0,0,0,1
869,1970-01-01 00:07:14.500,-0.6061692,0.17022904,0.76038696,8.2026,20.034,28.0994,0,0,0,0,0,0,1
870,1970-01-01 00:07:15.000,-0.60183576,0.21330968,0.80768148,14.4704,11.4156,-19.3032,0,0,0,0,0,0,1
871,1970-01-01 00:07:15.500,-0.67353028,0.24305572,0.79735052,24.675,-11.2714,-14.2618,0,0,0,0,0,0,1
872,1970-01-01 00:07:16.000,-0.63440732,0.28001928,0.7194706,15.1074,-33.2458,0.8162,0,0,0,0,0,0,1
873,1970-01-01 00:07:16.500,-0.64301808,0.19934068,0.72049296,-3.024,7.2632,41.7746,0,0,0,0,0,0,1
874,1970-01-01 00:07:17.000,-0.61638304,0.14033904,0.79327816,19.7526,16.4192,-6.5016,0,0,0,0,0,0,1
875,1970-01-01 00:07:17.500,-0.68447368,0.28567276,0.8079938,23.058,-10.4538,-27.027,0,0,0,0,0,0,1
876,1970-01-01 00:07:18.000,-0.63496364,0.26150944,0.69744472,2.8462,-17.2004,24.4216,0,0,0,0,0,0,1
877,1970-01-01 00:07:18.500,-0.61865956,0.13246516,0.73596256,2.0202,23.7104,29.1662,0,0,0,0,0,0,1
878,1970-01-01 00:07:19.000,-0.68271932,0.24271656,0.8254886,24.3488,-1.554,-33.0092,0,0,0,0,0,0,1
879,1970-01-01 00:07:19.500,-0.66085692,0.26183884,0.7241432,21.2856,-27.5478,-2.0384,0,0,0,0,0,0,1
880,1970-01-01 00:07:20.000,-0.63168916,0.21049148,0.70108764,-3.2578,3.7464,32.13,0,0,0,0,0,0,1
881,1970-01-01 00:07:20.500,-0.63507344,0.15826816,0.78673896,10.3782,20.4498,-1.9614,0,0,0,0,0,0,1
882,1970-01-01 00:07:21.000,-0.70755364,0.24574704,0.81278352,22.246,-17.9662,-19.5678,0,0,0,0,0,0,1
883,1970-01-01 00:07:21.500,-0.66385324,0.26946872,0.71524208,23.94,-20.7816,7.77,0,0,0,0,0,0,1
884,1970-01-01 00:07:22.000,-0.62501088,0.18238268,0.68701372,1.8298,-2.695,18.9854,0,0,0,0,0,0,1
885,1970-01-01 00:07:22.500,-0.64857152,0.16006156,0.75446996,5.2486,18.2406,17.5854,0,0,0,0,0,0,1
886,1970-01-01 00:07:23.000,-0.69060296,0.22729088,0.81378148,19.5482,-2.4038,-16.114,0,0,0,0,0,0,1
887,1970-01-01 00:07:23.500,-0.66745468,0.24972424,0.74364368,12.306,-26.0246,-12.9752,0,0,0,0,0,0,1
888,1970-01-01 00:07:24.000,-0.64540684,0.24947292,0.72703704,11.41,-18.4674,-0.0602,0,0,0,0,0,0,1
889,1970-01-01 00:07:24.500,-0.62493524,0.1894904,0.70924456,0.1386,0.7476,26.4124,0,0,0,0,0,0,1
890,1970-01-01 00:07:25.000,-0.6424886,0.16888216,0.76016736,12.831,21.8358,9.0062,0,0,0,0,0,0,1
891,1970-01-01 00:07:25.500,-0.6710122,0.240401,0.80647368,7.1106,-0.3122,-18.6522,0,0,0,0,0,0,1
892,1970-01-01 00:07:26.000,-0.68610848,0.23663852,0.74798688,17.7254,-24.6218,-1.7822,0,0,0,0,0,0,1
893,1970-01-01 00:07:26.500,-0.63740364,0.2316048,0.68856556,4.8888,-23.6488,9.2582,0,0,0,0,0,0,1
894,1970-01-01 00:07:27.000,-0.62267824,0.19487304,0.70656056,6.181,12.0764,23.8756,0,0,0,0,0,0,1
895,1970-01-01 00:07:27.500,-0.6624478,0.1868064,0.76081152,15.2656,14.5166,5.6266,0,0,0,0,0,0,1
896,1970-01-01 00:07:28.000,-0.67304716,0.23037016,0.76999568,7.8456,-3.0366,-19.8702,0,0,0,0,0,0,1
897,1970-01-01 00:07:28.500,-0.73361284,0.2747806,0.76626736,24.2088,-37.9694,-11.9714,0,0,0,0,0,0,1
898,1970-01-01 00:07:29.000,-0.60212368,0.21562524,0.65915136,-3.2802,-10.997,29.0766,0,0,0,0,0,0,1
899,1970-01-01 00:07:29.500,-0.6513336,0.19336268,0.73421552,11.3834,9.051,16.5284,0,0,0,0,0,0,1
900,1970-01-01 00:07:30.000,-0.69187664,0.21885824,0.73071412,7.35,-7.497,13.1376,0,0,0,0,0,0,1
901,1970-01-01 00:07:30.500,-0.673379,0.23947868,0.75843008,9.0706,-1.2236,3.8878,0,0,0,0,0,0,1
902,1970-01-01 00:07:31.000,-0.68441756,0.2151958,0.76037964,9.3212,1.4588,3.8234,0,0,0,0,0,0,1
903,1970-01-01 00:07:31.500,-0.66837212,0.20296408,0.74443424,4.7712,-5.138,-2.0314,0,0,0,0,0,0,1
904,1970-01-01 00:07:32.000,-0.71279964,0.2466108,0.76413236,16.2694,-3.4118,-11.1706,0,0,0,0,0,0,1
905,1970-01-01 00:07:32.500,-0.64876916,0.33482656,0.70074848,15.3594,-22.26,-26.9822,0,0,0,0,0,0,1
906,1970-01-01 00:07:33.000,-0.69649068,0.27509048,0.70535764,-2.807,0.9338,25.6466,0,0,0,0,0,0,1
907,1970-01-01 00:07:33.500,-0.6871162,0.23285652,0.72642704,2.4038,-8.9978,8.5232,0,0,0,0,0,0,1
908,1970-01-01 00:07:34.000,-0.70800748,0.21258256,0.73046768,6.2622,2.5326,19.9066,0,0,0,0,0,0,1
909,1970-01-01 00:07:34.500,-0.68133828,0.2114748,0.74733296,8.0808,-1.3342,8.2698,0,0,0,0,0,0,1
910,1970-01-01 00:07:35.000,-0.69409216,0.22864264,0.75003404,13.4288,-4.1832,-8.5358,0,0,0,0,0,0,1
911,1970-01-01 00:07:35.500,-0.66739612,0.23189028,0.71452228,5.8464,-9.2848,1.9138,0,0,0,0,0,0,1
912,1970-01-01 00:07:36.000,-0.68685024,0.2399252,0.75653664,11.8244,-1.6646,2.548,0,0,0,0,0,0,1
913,1970-01-01 00:07:36.500,-0.67827608,0.24852132,0.74580308,5.4404,-1.6534,3.9382,0,0,0,0,0,0,1
914,1970-01-01 00:07:37.000,-0.679601,0.23679956,0.74666928,10.759,-5.6882,-7.756,0,0,0,0,0,0,1
915,1970-01-01 00:07:37.500,-0.68161156,0.25719308,0.7386856,5.201,-10.4944,4.2252,0,0,0,0,0,0,1
916,1970-01-01 00:07:38.000,-0.695278,0.2305312,0.73481332,9.331,-0.546,-4.8356,0,0,0,0,0,0,1
917,1970-01-01 00:07:38.500,-0.67679988,0.24277756,0.74354608,5.5874,-13.097,8.4868,0,0,0,0,0,0,1
918,1970-01-01 00:07:39.000,-0.67604104,0.2484164,0.74367052,6.6654,-6.7998,-8.6954,0,0,0,0,0,0,1
919,1970-01-01 00:07:39.500,-0.68198244,0.23790732,0.7373436,4.4128,-10.2578,2.667,0,0,0,0,0,0,1
920,1970-01-01 00:07:40.000,-0.67536028,0.2461228,0.74025208,3.304,2.8826,3.64,0,0,0,0,0,0,1
921,1970-01-01 00:07:40.500,-0.6904102,0.24205288,0.74973392,2.968,-2.2918,-2.6852,0,0,0,0,0,0,1
922,1970-01-01 00:07:41.000,-0.69179124,0.24745504,0.74391208,9.6488,-12.3382,-10.6918,0,0,0,0,0,0,1
923,1970-01-01 00:07:41.500,-0.67863232,0.2439146,0.73951032,2.5354,-9.646,-2.0104,0,0,0,0,0,0,1
924,1970-01-01 00:07:42.000,-0.69372616,0.23692156,0.73154616,4.9602,-4.1776,7.7406,0,0,0,0,0,0,1
925,1970-01-01 00:07:42.500,-0.6679378,0.23529408,0.72831316,2.6908,1.148,-5.8044,0,0,0,0,0,0,1
926,1970-01-01 00:07:43.000,-0.67679256,0.2404986,0.73883688,2.9064,-13.1012,4.4072,0,0,0,0,0,0,1
927,1970-01-01 00:07:43.500,-0.66421192,0.26110196,0.73474012,5.7232,-8.9292,-21.3738,0,0,0,0,0,0,1
928,1970-01-01 00:07:44.000,-0.65410544,0.23308344,0.74141352,0.581,-10.8584,9.394,0,0,0,0,0,0,1
929,1970-01-01 00:07:44.500,-0.67138308,0.24204312,0.74964852,7.4018,-0.2982,-6.7382,0,0,0,0,0,0,1
930,1970-01-01 00:07:45.000,-0.65570852,0.247477,0.7528864,-3.6988,-10.3698,-0.3892,0,0,0,0,0,0,1
931,1970-01-01 00:07:45.500,-0.66669096,0.23666048,0.71844092,5.81,-16.6586,-6.4232,0,0,0,0,0,0,1
932,1970-01-01 00:07:46.000,-0.64569476,0.27001528,0.7321952,1.7052,-6.3308,-4.4198,0,0,0,0,0,0,1
933,1970-01-01 00:07:46.500,-0.63958744,0.26535244,0.70739504,1.5666,-5.747,12.0288,0,0,0,0,0,0,1
934,1970-01-01 00:07:47.000,-0.6871284,0.25231308,0.73215616,-2.7132,9.2218,19.4558,0,0,0,0,0,0,1
935,1970-01-01 00:07:47.500,-0.70404736,0.18168972,0.7255096,1.7752,-5.4236,33.1534,0,0,0,0,0,0,1
936,1970-01-01 00:07:48.000,-0.73456444,0.21044756,0.74858712,12.2024,0.777,5.2178,0,0,0,0,0,0,1
937,1970-01-01 00:07:48.500,-0.70685092,0.21299492,0.74275552,5.4726,-0.8106,2.4374,0,0,0,0,0,0,1
938,1970-01-01 00:07:49.000,-0.69736664,0.23142424,0.74674004,12.5076,-5.9024,-3.0464,0,0,0,0,0,0,1
939,1970-01-01 00:07:49.500,-0.70545768,0.25480676,0.75587784,7.3752,-4.9266,-12.8408,0,0,0,0,0,0,1
940,1970-01-01 00:07:50.000,-0.69834508,0.26122152,0.73999344,2.7874,-11.6886,-8.1536,0,0,0,0,0,0,1
941,1970-01-01 00:07:50.500,-0.6991942,0.25488972,0.74126224,6.993,-10.7254,-7.2072,0,0,0,0,0,0,1
942,1970-01-01 00:07:51.000,-0.69626132,0.25511664,0.73220252,7.882,-10.7604,-17.3936,0,0,0,0,0,0,1
943,1970-01-01 00:07:51.500,-0.7034154,0.2641178,0.72049296,8.722,-13.6416,-9.4402,0,0,0,0,0,0,1
944,1970-01-01 00:07:52.000,-0.68165792,0.29778248,0.69972368,9.45,-12.733,-5.5132,0,0,0,0,0,0,1
945,1970-01-01 00:07:52.500,-0.69154724,0.26957608,0.720227,2.5788,-9.2106,2.058,0,0,0,0,0,0,1
946,1970-01-01 00:07:53.000,-0.69788148,0.26099704,0.72867916,-3.402,-2.8252,10.745,0,0,0,0,0,0,1
947,1970-01-01 00:07:53.500,-0.69738616,0.2256268,0.72390652,-0.6426,4.6312,18.3932,0,0,0,0,0,0,1
948,1970-01-01 00:07:54.000,-0.69296,0.1909666,0.7630124,4.1678,1.8312,23.6404,0,0,0,0,0,0,1
949,1970-01-01 00:07:54.500,-0.66672756,0.2611898,0.73455956,1.6534,-3.325,5.3578,0,0,0,0,0,0,1
950,1970-01-01 00:07:55.000,-0.68596696,0.2367776,0.73172672,1.1242,-5.873,1.8592,0,0,0,0,0,0,1
951,1970-01-01 00:07:55.500,-0.69087136,0.20915924,0.76011124,4.5374,-8.3482,-7.1918,0,0,0,0,0,0,1
952,1970-01-01 00:07:56.000,-0.65891468,0.23828064,0.72868892,-0.7896,-7.273,2.9974,0,0,0,0,0,0,1
953,1970-01-01 00:07:56.500,-0.68482016,0.24769172,0.73291744,5.3508,-6.657,-3.3838,0,0,0,0,0,0,1
954,1970-01-01 00:07:57.000,-0.66780604,0.23443276,0.7314144,-0.1148,-5.313,4.6816,0,0,0,0,0,0,1
955,1970-01-01 00:07:57.500,-0.67563356,0.22605868,0.74661804,2.2554,-14.2982,-14.0462,0,0,0,0,0,0,1
956,1970-01-01 00:07:58.000,-0.67053884,0.25413576,0.74168924,2.0832,-2.296,7.4718,0,0,0,0,0,0,1
957,1970-01-01 00:07:58.500,-0.67966932,0.23762672,0.74179904,2.5844,-3.1136,0.875,0,0,0,0,0,0,1
958,1970-01-01 00:07:59.000,-0.67177348,0.24329728,0.73333468,-3.0618,-12.8814,-0.4284,0,0,0,0,0,0,1
959,1970-01-01 00:07:59.500,-0.67572628,0.2356064,0.73779988,2.9008,-5.0274,-4.3708,0,0,0,0,0,0,1
960,1970-01-01 00:08:00.000,-0.67781004,0.23958604,0.74829432,-1.7094,-13.3028,-4.6074,0,0,0,0,0,0,1
961,1970-01-01 00:08:00.500,-0.66853804,0.24341684,0.7320732,1.0024,-2.296,-2.1826,0,0,0,0,0,0,1
962,1970-01-01 00:08:01.000,-0.69670296,0.257603,0.7293282,4.144,-15.9012,-19.4334,0,0,0,0,0,0,1
963,1970-01-01 00:08:01.500,-0.67494304,0.25386736,0.73344936,4.69,-12.642,-4.8216,0,0,0,0,0,0,1
964,1970-01-01 00:08:02.000,-0.66672268,0.25195196,0.72641972,2.2008,-7.9142,2.17,0,0,0,0,0,0,1
965,1970-01-01 00:08:02.500,-0.68455176,0.22363576,0.72781052,0.7938,-4.6312,-3.507,0,0,0,0,0,0,1
966,1970-01-01 00:08:03.000,-0.67320332,0.24147216,0.7309874,2.2498,-9.4682,5.054,0,0,0,0,0,0,1
967,1970-01-01 00:08:03.500,-0.66782556,0.24374136,0.7340008,-3.2914,-10.2634,-2.3758,0,0,0,0,0,0,1
968,1970-01-01 00:08:04.000,-0.67670716,0.24531516,0.73338104,0.5068,-4.5668,2.6096,0,0,0,0,0,0,1
969,1970-01-01 00:08:04.500,-0.67387188,0.25642204,0.73551848,-3.6302,-3.2018,-3.374,0,0,0,0,0,0,1
970,1970-01-01 00:08:05.000,-0.620431,0.24742576,0.71516888,-3.5854,-1.967,8.5022,0,0,0,0,0,0,1
971,1970-01-01 00:08:05.500,-0.6734888,0.27661792,0.75611208,2.8938,-3.017,-11.2672,0,0,0,0,0,0,1
972,1970-01-01 00:08:06.000,-0.6960832,0.22555848,0.74352412,4.1552,-3.4286,-3.9298,0,0,0,0,0,0,1
973,1970-01-01 00:08:06.500,-0.69816696,0.24268972,0.73516468,2.5956,-13.7284,-10.3712,0,0,0,0,0,0,1
974,1970-01-01 00:08:07.000,-0.6969128,0.24722324,0.71231164,3.64,-12.7008,-5.0918,0,0,0,0,0,0,1
975,1970-01-01 00:08:07.500,-0.6883728,0.23755596,0.7179212,7.4844,-8.1466,-0.4228,0,0,0,0,0,0,1
976,1970-01-01 00:08:08.000,-0.69025648,0.25169576,0.7196048,1.6912,-7.343,-11.7852,0,0,0,0,0,0,1
977,1970-01-01 00:08:08.500,-0.71834088,0.25218132,0.73336152,1.085,-6.4274,7.0392,0,0,0,0,0,0,1
978,1970-01-01 00:08:09.000,-0.68482504,0.19981892,0.71625956,5.537,4.0698,30.2092,0,0,0,0,0,0,1
979,1970-01-01 00:08:09.500,-0.67644852,0.20312024,0.7140904,4.0908,6.727,15.9782,0,0,0,0,0,0,1
980,1970-01-01 00:08:10.000,-0.71004244,0.21600588,0.73220252,4.207,0.5068,8.1228,0,0,0,0,0,0,1
981,1970-01-01 00:08:10.500,-0.69539268,0.21644264,0.74856516,-3.8598,-9.1518,2.0944,0,0,0,0,0,0,1
982,1970-01-01 00:08:11.000,-0.67599712,0.23252956,0.72803744,8.7738,-1.6212,1.309,0,0,0,0,0,0,1
983,1970-01-01 00:08:11.500,-0.69469484,0.196481,0.7440292,6.2944,-2.282,2.828,0,0,0,0,0,0,1
984,1970-01-01 00:08:12.000,-0.68524228,0.23418388,0.72313548,-1.7668,-3.3362,-2.0944,0,0,0,0,0,0,1
985,1970-01-01 00:08:12.500,-0.70815632,0.24994384,0.72840588,3.4608,-3.9536,8.253,0,0,0,0,0,0,1
986,1970-01-01 00:08:13.000,-0.70017752,0.1941996,0.73948348,1.3552,-21.9786,-27.6248,0,0,0,0,0,0,1
987,1970-01-01 00:08:13.500,-0.689361,0.2194048,0.75440408,0.868,-17.4776,-8.6744,0,0,0,0,0,0,1
988,1970-01-01 00:08:14.000,-0.66258932,0.22447268,0.72967956,5.1604,3.15,2.898,0,0,0,0,0,0,1
989,1970-01-01 00:08:14.500,-0.6872992,0.22902084,0.72817408,2.8714,-15.2712,-19.481,0,0,0,0,0,0,1
990,1970-01-01 00:08:15.000,-0.67804428,0.22519736,0.72521924,-0.5894,-8.5778,-3.1514,0,0,0,0,0,0,1
991,1970-01-01 00:08:15.500,-0.68812636,0.22346008,0.73854896,-0.1176,-10.045,-1.9362,0,0,0,0,0,0,1
992,1970-01-01 00:08:16.000,-0.6906786,0.22922824,0.73466936,-0.5852,-1.6044,7.329,0,0,0,0,0,0,1
993,1970-01-01 00:08:16.500,-0.67460632,0.23436932,0.73104108,-0.0196,-9.275,-2.961,0,0,0,0,0,0,1
994,1970-01-01 00:08:17.000,-0.67188816,0.2159522,0.73986168,-0.5194,-3.1878,10.696,0,0,0,0,0,0,1
995,1970-01-01 00:08:17.500,-0.67732936,0.23320544,0.740113,-0.1932,-11.7124,-9.6908,0,0,0,0,0,0,1
996,1970-01-01 00:08:18.000,-0.67697556,0.21349756,0.74715972,-4.424,-4.7306,3.9116,0,0,0,0,0,0,1
997,1970-01-01 00:08:18.500,-0.6737328,0.26375912,0.71230188,2.8532,-8.4,-10.3824,0,0,0,0,0,0,1
998,1970-01-01 00:08:19.000,-0.66428268,0.2554924,0.6994382,-1.7108,-14.6762,-6.4022,0,0,0,0,0,0,1
999,1970-01-01 00:08:19.500,-0.66659336,0.22966744,0.71808224,-0.9352,-1.2292,2.0398,0,0,0,0,0,0,1
1000,1970-01-01 00:08:20.000,-0.654652,0.23826844,0.7060384,-4.2406,-0.1764,11.5094,0,0,0,0,0,0,1
1001,1970-01-01 00:08:20.500,-0.676978,0.22971624,0.73388124,2.3198,-3.668,12.4278,0,0,0,0,0,0,1
1002,1970-01-01 00:08:21.000,-0.66431928,0.20857608,0.73230256,4.69,-8.5624,7.9646,0,0,0,0,0,0,1
1003,1970-01-01 00:08:21.500,-0.6573116,0.20880056,0.7256316,9.0244,10.5644,13.6962,0,0,0,0,0,0,1
1004,1970-01-01 00:08:22.000,-0.68780672,0.22016608,0.77561744,3.5952,-9.0412,3.2158,0,0,0,0,0,0,1
1005,1970-01-01 00:08:22.500,-0.66945304,0.24126232,0.74473436,4.4646,-3.8038,-4.8762,0,0,0,0,0,0,1
1006,1970-01-01 00:08:23.000,-0.69167168,0.2075098,0.75041224,-2.2064,-11.7544,-5.6868,0,0,0,0,0,0,1
1007,1970-01-01 00:08:23.500,-0.66176948,0.25548752,0.78919116,12.327,-9.8938,-38.2886,0,0,0,0,0,0,1
1008,1970-01-01 00:08:24.000,-0.62687016,0.30458032,0.77859424,15.0794,-14.4074,-22.7276,0,0,0,0,0,0,1
1009,1970-01-01 00:08:24.500,-0.61614148,0.26910516,0.7716012,5.4628,-5.2696,19.8338,0,0,0,0,0,0,1
1010,1970-01-01 00:08:25.000,-0.62112396,0.2292868,0.76704572,1.3818,2.3436,20.2832,0,0,0,0,0,0,1
1011,1970-01-01 00:08:25.500,-0.65224372,0.20150008,0.76675536,0.9898,-0.3472,30.2302,0,0,0,0,0,0,1
1012,1970-01-01 00:08:26.000,-0.62246596,0.15606484,0.78362064,10.6876,12.4054,7.6426,0,0,0,0,0,0,1
1013,1970-01-01 00:08:26.500,-0.65730672,0.2313242,0.792085,14.553,-1.7164,-28.1428,0,0,0,0,0,0,1
1014,1970-01-01 00:08:27.000,-0.68960988,0.24423424,0.79092844,22.687,-14.0588,-22.6058,0,0,0,0,0,0,1
1015,1970-01-01 00:08:27.500,-0.62334924,0.28040236,0.69975784,11.879,-23.8266,1.015,0,0,0,0,0,0,1
1016,1970-01-01 00:08:28.000,-0.66115704,0.1966518,0.73371288,-3.157,5.054,41.2734,0,0,0,0,0,0,1
1017,1970-01-01 00:08:28.500,-0.65735064,0.15637228,0.79378324,3.3068,3.2522,16.8364,0,0,0,0,0,0,1
1018,1970-01-01 00:08:29.000,-0.64086112,0.18700648,0.7885226,14.21,2.954,-18.5836,0,0,0,0,0,0,1
1019,1970-01-01 00:08:29.500,-0.671183,0.24877752,0.78260072,19.936,-5.5678,-27.2538,0,0,0,0,0,0,1
1020,1970-01-01 00:08:30.000,-0.67499428,0.24392192,0.74366808,13.9566,-23.7398,-7.3346,0,0,0,0,0,0,1
1021,1970-01-01 00:08:30.500,-0.64978908,0.23032624,0.71770404,2.744,-5.8562,25.6172,0,0,0,0,0,0,1
1022,1970-01-01 00:08:31.000,-0.65234864,0.20122192,0.75766148,4.2854,5.7512,3.5994,0,0,0,0,0,0,1
1023,1970-01-01 00:08:31.500,-0.6415614,0.21130644,0.75662448,6.6024,-7.4256,-4.0544,0,0,0,0,0,0,1
1024,1970-01-01 00:08:32.000,-0.67003132,0.174521,0.76401524,-2.3912,8.3118,34.839,0,0,0,0,0,0,1
1025,1970-01-01 00:08:32.500,-0.65588908,0.17201756,0.78510416,7.2982,9.5032,6.8894,0,0,0,0,0,0,1
1026,1970-01-01 00:08:33.000,-0.65006236,0.22897448,0.74569328,4.361,-6.0606,1.9698,0,0,0,0,0,0,1
1027,1970-01-01 00:08:33.500,-0.66926272,0.2032764,0.7640006,11.4114,-3.1906,-11.8804,0,0,0,0,0,0,1
1028,1970-01-01 00:08:34.000,-0.68813124,0.23013836,0.76862928,15.8998,-9.9414,-16.7146,0,0,0,0,0,0,1
1029,1970-01-01 00:08:34.500,-0.67189548,0.24633508,0.7288402,7.763,-24.3418,-14.7728,0,0,0,0,0,0,1
1030,1970-01-01 00:08:35.000,-0.65400296,0.2325564,0.72017088,6.538,-12.3368,9.5858,0,0,0,0,0,0,1
1031,1970-01-01 00:08:35.500,-0.64917908,0.20164648,0.73593816,4.2672,-2.933,8.5204,0,0,0,0,0,0,1
1032,1970-01-01 00:08:36.000,-0.63890424,0.20220768,0.7478966,4.7922,-0.5698,11.6102,0,0,0,0,0,0,1
1033,1970-01-01 00:08:36.500,-0.64590948,0.19097148,0.76298312,4.9714,-1.274,1.883,0,0,0,0,0,0,1
1034,1970-01-01 00:08:37.000,-0.64187616,0.2112064,0.7579738,4.886,-0.1106,1.904,0,0,0,0,0,0,1
1035,1970-01-01 00:08:37.500,-0.64071716,0.17910576,0.75494332,3.9536,-0.9842,10.2144,0,0,0,0,0,0,1
1036,1970-01-01 00:08:38.000,-0.64774436,0.20270056,0.76475456,5.6322,-2.114,1.5092,0,0,0,0,0,0,1
1037,1970-01-01 00:08:38.500,-0.64571428,0.21521776,0.77736204,7.7546,-7.0896,-4.7208,0,0,0,0,0,0,1
1038,1970-01-01 00:08:39.000,-0.65303428,0.20506492,0.76114336,5.8128,-9.898,-10.206,0,0,0,0,0,0,1
1039,1970-01-01 00:08:39.500,-0.65500824,0.21030848,0.76454472,3.0492,-5.012,3.3978,0,0,0,0,0,0,1
1040,1970-01-01 00:08:40.000,-0.65625508,0.21455652,0.7550458,7.3388,-9.863,-8.0724,0,0,0,0,0,0,1
1041,1970-01-01 00:08:40.500,-0.672769,0.23917368,0.75151024,6.377,-17.3348,-9.4136,0,0,0,0,0,0,1
1042,1970-01-01 00:08:41.000,-0.66997276,0.2330932,0.72305252,2.5858,-19.7036,-13.8166,0,0,0,0,0,0,1
1043,1970-01-01 00:08:41.500,-0.65924408,0.27054232,0.71165528,13.2034,2.5116,35.343,0,0,0,0,0,0,1
1044,1970-01-01 00:08:42.000,-0.6432328,0.21065252,0.7198488,-3.8808,1.4826,28.6818,0,0,0,0,0,0,1
1045,1970-01-01 00:08:42.500,-0.62672864,0.11870356,0.76229504,26.9458,16.786,9.3842,0,0,0,0,0,0,1
1046,1970-01-01 00:08:43.000,-0.68032324,0.25109064,0.79754084,20.0802,-3.0254,-16.7328,0,0,0,0,0,0,1
1047,1970-01-01 00:08:43.500,-0.72578288,0.27067408,0.76572324,16.5886,-32.2322,-23.8154,0,0,0,0,0,0,1
1048,1970-01-01 00:08:44.000,-0.64287168,0.3315106,0.6965712,19.075,-19.6882,0.4872,0,0,0,0,0,0,1
1049,1970-01-01 00:08:44.500,-0.65196556,0.24447824,0.71488828,5.761,3.6988,31.7814,0,0,0,0,0,0,1
1050,1970-01-01 00:08:45.000,-0.6928746,0.21441744,0.75320848,3.0814,8.7528,21.8008,0,0,0,0,0,0,1
1051,1970-01-01 00:08:45.500,-0.6743794,0.2029836,0.78444048,8.4658,-1.421,8.9418,0,0,0,0,0,0,1
1052,1970-01-01 00:08:46.000,-0.66042504,0.22010264,0.75692948,23.604,-0.9044,-20.538,0,0,0,0,0,0,1
1053,1970-01-01 00:08:46.500,-0.69151552,0.2512102,0.77756944,10.493,-16.2862,-26.2388,0,0,0,0,0,0,1
1054,1970-01-01 00:08:47.000,-0.66743028,0.29257308,0.73488164,10.2606,-20.643,-11.4842,0,0,0,0,0,0,1
1055,1970-01-01 00:08:47.500,-0.63999248,0.27908232,0.71383664,6.1432,-4.116,14.1834,0,0,0,0,0,0,1
1056,1970-01-01 00:08:48.000,-0.6643388,0.24305572,0.7373314,-5.4614,2.73,30.6502,0,0,0,0,0,0,1
1057,1970-01-01 00:08:48.500,-0.67284708,0.19802796,0.75518976,5.9024,5.8002,22.351,0,0,0,0,0,0,1
1058,1970-01-01 00:08:49.000,-0.66321396,0.22075412,0.77086188,11.0446,4.368,-4.438,0,0,0,0,0,0,1
1059,1970-01-01 00:08:49.500,-0.66534408,0.25028544,0.75775908,11.5794,-8.113,-6.895,0,0,0,0,0,0,1
1060,1970-01-01 00:08:50.000,-0.6768804,0.2484652,0.75465296,4.4968,-19.5006,-27.8642,0,0,0,0,0,0,1
1061,1970-01-01 00:08:50.500,-0.67745624,0.28477728,0.72315012,15.4532,-29.8032,-14.406,0,0,0,0,0,0,1
1062,1970-01-01 00:08:51.000,-0.64813232,0.26711412,0.70452804,3.7688,0.6692,19.229,0,0,0,0,0,0,1
1063,1970-01-01 00:08:51.500,-0.67026312,0.212097,0.7403936,2.9568,2.9582,24.7072,0,0,0,0,0,0,1
1064,1970-01-01 00:08:52.000,-0.6729398,0.20385956,0.76331496,7.1386,1.8354,14.9926,0,0,0,0,0,0,1
1065,1970-01-01 00:08:52.500,-0.65630144,0.23650432,0.76646988,13.0368,-0.8764,-7.8134,0,0,0,0,0,0,1
1066,1970-01-01 00:08:53.000,-0.68746268,0.25754932,0.7766032,10.3026,-20.6668,-27.2902,0,0,0,0,0,0,1
1067,1970-01-01 00:08:53.500,-0.62717516,0.30581496,0.68500804,6.8138,-17.6498,-13.755,0,0,0,0,0,0,1
1068,1970-01-01 00:08:54.000,-0.67475028,0.25804708,0.71663776,-0.6412,-3.9284,24.668,0,0,0,0,0,0,1
1069,1970-01-01 00:08:54.500,-0.6847128,0.2331786,0.74135984,-1.4266,6.0942,28.7266,0,0,0,0,0,0,1
1070,1970-01-01 00:08:55.000,-0.67075356,0.20743172,0.78922776,8.1116,2.6208,2.7328,0,0,0,0,0,0,1
1071,1970-01-01 00:08:55.500,-0.66551976,0.26893924,0.74845536,7.476,-26.831,-35.5278,0,0,0,0,0,0,1
1072,1970-01-01 00:08:56.000,-0.63350696,0.29615012,0.71403672,10.423,-15.8704,0.2156,0,0,0,0,0,0,1
1073,1970-01-01 00:08:56.500,-0.6552254,0.25480432,0.704245,-0.21,5.2276,21.3458,0,0,0,0,0,0,1
1074,1970-01-01 00:08:57.000,-0.6884948,0.21864352,0.75704172,5.95,8.4658,22.2292,0,0,0,0,0,0,1
1075,1970-01-01 00:08:57.500,-0.66872592,0.20620928,0.780556,6.6598,-13.6934,-13.7606,0,0,0,0,0,0,1
1076,1970-01-01 00:08:58.000,-0.67754652,0.2842722,0.73796092,2.835,-19.3382,-27.7564,0,0,0,0,0,0,1
1077,1970-01-01 00:08:58.500,-0.63220888,0.28848852,0.71191636,4.2112,-14.4606,-11.1076,0,0,0,0,0,0,1
1078,1970-01-01 00:08:59.000,-0.63803316,0.25678072,0.72449456,-1.8508,5.978,29.568,0,0,0,0,0,0,1
1079,1970-01-01 00:08:59.500,-0.419619,0.12549896,0.88874804,8.7094,-8.0668,-12.166,1,0,0,0,0,0,1
1080,1970-01-01 00:09:00.000,-0.40320512,0.08479488,0.9192822,-10.4734,-13.3196,19.8744,1,0,0,0,0,0,0
1081,1970-01-01 00:09:00.500,-0.29551572,0.21308276,0.93467616,12.4236,-16.1028,-78.54,1,0,0,0,0,0,0
1082,1970-01-01 00:09:01.000,-0.28261544,0.05082032,0.96198464,-15.1564,0.3794,28.4256,1,0,0,0,0,0,0
1083,1970-01-01 00:09:01.500,-0.23518916,0.1111908,0.96185044,4.5668,-5.5328,1.3174,1,0,0,0,0,0,0
1084,1970-01-01 00:09:02.000,-0.25680024,0.10907532,0.95701192,-8.7136,-5.3592,21.6412,1,0,0,0,0,0,0
1085,1970-01-01 00:09:02.500,-0.24908496,0.08573428,0.96535916,0.525,-8.134,-16.1854,1,0,0,0,0,0,0
1086,1970-01-01 00:09:03.000,-0.22442632,0.10414896,0.97149332,2.3254,-0.6062,-11.7068,1,0,0,0,0,0,0
1087,1970-01-01 00:09:03.500,-0.24799916,0.00829356,0.96836036,-2.709,-15.8158,-12.7008,1,0,0,0,0,0,0
1088,1970-01-01 00:09:04.000,-0.2423164,0.07512272,0.96946812,13.0032,-1.9936,-2.03,1,0,0,0,0,0,0
1089,1970-01-01 00:09:04.500,-0.2911896,0.1086288,0.96585692,-11.914,-3.8948,36.3398,1,0,0,0,0,0,0
1090,1970-01-01 00:09:05.000,-0.26567452,0.06078528,0.96969504,-10.7044,-7.2338,34.86,1,0,0,0,0,0,0
1091,1970-01-01 00:09:05.500,-0.24113788,0.0674538,0.9680822,12.537,-12.1548,-42.1484,1,0,0,0,0,0,0
1092,1970-01-01 00:09:06.000,-0.14793964,0.052582,1.00082456,10.4216,16.4388,-14.2044,1,0,0,0,0,0,0
1093,1970-01-01 00:09:06.500,-0.24786008,0.16920668,0.9829662,-4.2294,-20.1306,12.2738,1,0,0,0,0,0,0
1094,1970-01-01 00:09:07.000,-0.40983704,0.02118896,0.9443898,-2.4374,-9.1238,35.6482,1,0,0,0,0,0,0
1095,1970-01-01 00:09:07.500,-0.38670096,0.19497796,0.92401092,-4.7222,-4.6438,-49.4144,1,0,0,0,0,0,0
1096,1970-01-01 00:09:08.000,-0.7820688,-0.15532552,0.86455544,5.222,-12.488,24.5252,1,0,0,0,0,0,0
1097,1970-01-01 00:09:08.500,-0.31826384,0.15750444,0.95170004,21.7308,-8.1606,-52.3586,1,0,0,0,0,0,0
1098,1970-01-01 00:09:09.000,-0.3623766,0.23953968,0.91939932,-8.288,-8.5386,40.1786,1,0,0,0,0,0,0
1099,1970-01-01 00:09:09.500,-0.27471716,-0.00234728,0.96093056,-12.0568,-2.3072,33.2416,1,0,0,0,0,0,0
1100,1970-01-01 00:09:10.000,-0.23928836,0.0688568,0.9573462,-4.046,-6.748,-4.27,1,0,0,0,0,0,0
1101,1970-01-01 00:09:10.500,-0.23286384,0.04013312,0.97186664,1.0388,-7.5222,-0.4172,1,0,0,0,0,0,0
1102,1970-01-01 00:09:11.000,-0.25863756,0.0482388,0.95918108,3.7044,-4.3008,-24.738,1,0,0,0,0,0,0
1103,1970-01-01 00:09:11.500,-0.246257,0.036173,0.9687532,1.386,-5.2108,-0.7196,1,0,0,0,0,0,0
1104,1970-01-01 00:09:12.000,-0.19187184,0.15523036,0.98471568,-5.936,0.7574,-9.0216,1,0,0,0,0,0,0
1105,1970-01-01 00:09:12.500,-0.29561088,-0.07589376,0.9664474,14.1148,-19.3676,-34.328,1,0,0,0,0,0,0
1106,1970-01-01 00:09:13.000,-0.28816644,0.09015068,0.97389428,12.0554,-2.5452,-16.8,1,0,0,0,0,0,0
1107,1970-01-01 00:09:13.500,-0.23765356,0.03744668,0.9717056,-0.728,-8.0822,-0.9702,1,0,0,0,0,0,0
1108,1970-01-01 00:09:14.000,-0.05333352,0.22036372,1.13614452,-29.1172,0.049,26.4418,1,0,0,0,0,0,0
1109,1970-01-01 00:09:14.500,-0.62996896,-0.11172028,0.83630756,23.0454,-24.598,18.1342,1,0,0,0,0,0,0
1110,1970-01-01 00:09:15.000,-0.50918164,0.02656428,0.90990528,-9.2624,3.4874,35.455,1,0,0,0,0,0,0
1111,1970-01-01 00:09:15.500,-0.2504294,0.05166456,0.98254896,34.363,-16.9736,-79.3366,1,0,0,0,0,0,0
1112,1970-01-01 00:09:16.000,-0.21490544,0.22589276,0.94457524,-19.789,3.5014,14.6132,1,0,0,0,0,0,0
1113,1970-01-01 00:09:16.500,-0.30341888,0.12300284,0.94293068,-21.4578,-0.5418,97.2048,1,0,0,0,0,0,0
1114,1970-01-01 00:09:17.000,-0.23418144,0.14548256,0.9660448,12.9136,-6.4876,34.9482,1,0,0,0,0,0,0
1115,1970-01-01 00:09:17.500,-0.3425394,0.00658068,0.97013912,-6.5352,-15.8508,-53.0026,1,0,0,0,0,0,0
1116,1970-01-01 00:09:18.000,-0.3768092,0.21575456,0.93385876,-9.6404,-9.8252,12.67,1,0,0,0,0,0,0
1117,1970-01-01 00:09:18.500,-0.37532568,0.01299056,0.98158516,-3.5294,-16.31,-8.7038,1,0,0,0,0,0,0
1118,1970-01-01 00:09:19.000,-0.33619296,0.05439248,1.04641596,4.053,-62.5268,43.5008,1,0,0,0,0,0,0
1119,1970-01-01 00:09:19.500,-0.25992832,0.37760952,0.80821096,-14.6062,46.5962,13.1908,1,0,0,0,0,0,0
1120,1970-01-01 00:09:20.000,-0.24352176,0.07830448,0.968863,-8.001,10.857,12.467,1,0,0,0,0,0,0
1121,1970-01-01 00:09:20.500,-0.28043652,0.11839124,0.95218072,7.35,-15.0878,-33.1268,1,0,0,0,0,0,0
1122,1970-01-01 00:09:21.000,-0.23365928,0.048312,0.96921192,-8.5708,-5.8478,-4.3568,1,0,0,0,0,0,0
1123,1970-01-01 00:09:21.500,-0.244732,0.04581344,0.96786992,19.3088,-15.6408,-96.6924,1,0,0,0,0,0,0
1124,1970-01-01 00:09:22.000,-0.24308744,0.07270956,0.97325988,-7.3094,-4.1468,-3.5476,1,0,0,0,0,0,0
1125,1970-01-01 00:09:22.500,-0.27250164,0.27938,0.92792956,30.4752,4.5318,46.0964,1,0,0,0,0,0,0
1126,1970-01-01 00:09:23.000,-0.20555536,-0.18518868,1.03022656,-20.3448,-19.5216,-25.928,1,0,0,0,0,0,0
1127,1970-01-01 00:09:23.500,-0.00325496,0.05142788,1.0603264,7.455,1.9446,-2.4458,1,0,0,0,0,0,0
1128,1970-01-01 00:09:24.000,-0.35703544,0.14324508,0.93146512,-20.9762,7.0266,87.4426,1,0,0,0,0,0,0
1129,1970-01-01 00:09:24.500,-0.43287796,0.0874252,0.92591656,25.8916,-17.7618,-32.2462,1,0,0,0,0,0,0
1130,1970-01-01 00:09:25.000,-0.3681228,0.14395756,0.96020588,-0.7728,-8.7416,-9.758,1,0,0,0,0,0,0
1131,1970-01-01 00:09:25.500,-0.23723388,0.06840784,0.95317136,-17.1612,-10.9942,13.776,1,0,0,0,0,0,0
1132,1970-01-01 00:09:26.000,-0.3673664,0.19388484,0.91001264,33.1408,-8.0206,0.3556,1,0,0,0,0,0,0
1133,1970-01-01 00:09:26.500,-0.23993984,0.16371912,0.94159356,-34.2678,16.576,50.428,1,0,0,0,0,0,0
1134,1970-01-01 00:09:27.000,-0.24952172,0.06796864,0.95282976,14.9856,-9.8672,-51.2554,1,0,0,0,0,0,0
1135,1970-01-01 00:09:27.500,-0.27023,0.052094,0.9759024,-13.125,-14.7406,-6.6682,1,0,0,0,0,0,0
1136,1970-01-01 00:09:28.000,-0.24317528,0.03912052,0.96897768,7.9128,-7.7686,-22.7346,1,0,0,0,0,0,0
1137,1970-01-01 00:09:28.500,-0.24640828,0.04397368,0.96838964,18.3274,-2.1294,-19.397,1,0,0,0,0,0,0
1138,1970-01-01 00:09:29.000,-0.36161776,0.37630656,0.8982372,10.2158,2.9064,39.4156,1,0,0,0,0,0,0
1139,1970-01-01 00:09:29.500,-0.08603928,-0.08483148,1.04269496,11.0488,-31.2186,-65.6754,1,0,0,0,0,0,0
1140,1970-01-01 00:09:30.000,-0.17920092,0.0789462,0.99977292,8.2124,25.8412,-0.5222,1,0,0,0,0,0,0
1141,1970-01-01 00:09:30.500,-0.41281384,0.22382608,0.9133896,9.9008,-36.0164,65.1406,1,0,0,0,0,0,0
1142,1970-01-01 00:09:31.000,-0.15100184,0.05490732,0.99577376,-18.522,-5.348,3.0884,1,0,0,0,0,0,0
1143,1970-01-01 00:09:31.500,-0.23690204,0.29331728,0.9514658,-8.8228,0.28,18.0082,1,0,0,0,0,0,0
1144,1970-01-01 00:09:32.000,-0.35322416,0.07624268,0.98097028,3.0338,-7.434,-7.8372,1,0,0,0,0,0,0
1145,1970-01-01 00:09:32.500,-0.4186918,-0.09882,0.92764408,-42.4788,2.5368,132.4414,1,0,0,0,0,0,0
1146,1970-01-01 00:09:33.000,-0.32942684,0.37039688,0.88526616,76.776,-22.2404,-174.993,1,0,0,0,0,0,0
1147,1970-01-01 00:09:33.500,-0.22932828,0.15499856,0.9518684,-41.0578,6.6654,49.0518,1,0,0,0,0,0,0
1148,1970-01-01 00:09:34.000,-0.2637518,0.0797026,0.9622872,-2.163,-5.3606,-1.8088,1,0,0,0,0,0,0
1149,1970-01-01 00:09:34.500,-0.2517836,0.08334552,0.96388784,2.1574,-11.0866,-12.5972,1,0,0,0,0,0,0
1150,1970-01-01 00:09:35.000,-0.23438884,0.05091304,0.9721448,0.0742,-3.9438,-0.8582,1,0,0,0,0,0,0
1151,1970-01-01 00:09:35.500,-0.43975144,-0.0512278,0.97045876,-4.375,-11.3974,-22.0528,1,0,0,0,0,0,0
1152,1970-01-01 00:09:36.000,-0.39231296,0.3472242,0.95438648,30.625,1.2838,1.3342,1,0,0,0,0,0,0
1153,1970-01-01 00:09:36.500,-0.5803296,-0.13845292,0.80986284,-13.7984,14.9058,83.3924,1,0,0,0,0,0,0
1154,1970-01-01 00:09:37.000,-0.07714548,0.33733,0.97263768,-14.2296,-21.5054,-33.5482,1,0,0,0,0,0,0
1155,1970-01-01 00:09:37.500,-0.36140304,0.14725156,0.85034732,-20.573,19.061,86.6838,1,0,0,0,0,0,0
1156,1970-01-01 00:09:38.000,-0.33550244,0.11595124,0.93617432,18.1762,-4.9812,-80.4748,1,0,0,0,0,0,0
1157,1970-01-01 00:09:38.500,-0.30377756,0.12722892,0.92057052,6.3574,-19.215,-39.4548,1,0,0,0,0,0,0
1158,1970-01-01 00:09:39.000,-0.27232596,0.09586516,0.95581388,5.9416,-4.4128,2.3282,1,0,0,0,0,0,0
1159,1970-01-01 00:09:39.500,-0.28688056,0.0967094,0.95455972,0.2926,-2.7664,-3.7702,1,0,0,0,0,0,0
1160,1970-01-01 00:09:40.000,-0.23606756,0.13707676,0.96042304,31.8108,-22.2684,-114.9414,1,0,0,0,0,0,0
1161,1970-01-01 00:09:40.500,-0.32460296,0.06386212,0.96756004,-2.1504,-14.1904,24.1584,1,0,0,0,0,0,0
1162,1970-01-01 00:09:41.000,-0.2432436,0.06563112,0.97213748,3.976,-0.2002,-0.238,1,0,0,0,0,0,0
1163,1970-01-01 00:09:41.500,-0.2975702,0.11784956,0.95406196,-2.0384,-15.3538,10.0618,1,0,0,0,0,0,0
1164,1970-01-01 00:09:42.000,-0.24444652,0.1930406,1.0015956,-17.9522,-7.826,126.245,1,0,0,0,0,0,0
1165,1970-01-01 00:09:42.500,-0.46809204,-0.07965868,0.95294932,-4.6984,10.0156,3.514,1,0,0,0,0,0,0
1166,1970-01-01 00:09:43.000,-0.28083424,0.33804004,0.9280296,26.4768,-10.4496,-99.491,1,0,0,0,0,0,0
1167,1970-01-01 00:09:43.500,-0.30148396,0.02988756,0.86154936,-8.4168,36.0262,149.156,1,0,0,0,0,0,0
1168,1970-01-01 00:09:44.000,-0.37903448,0.09205632,0.89408188,6.2272,-13.0522,-74.1286,1,0,0,0,0,0,0
1169,1970-01-01 00:09:44.500,-0.3649752,0.20554804,0.95526976,-0.4214,-6.9048,-23.6026,1,0,0,0,0,0,0
1170,1970-01-01 00:09:45.000,-0.2669848,0.07835572,0.95933236,-8.1032,-10.2368,-6.153,1,0,0,0,0,0,0
1171,1970-01-01 00:09:45.500,-0.26895632,0.06557744,0.959347,-0.1162,-5.5244,4.2784,1,0,0,0,0,0,0
1172,1970-01-01 00:09:46.000,-0.24522976,0.04547428,0.96824812,-4.1272,-9.2694,-4.0978,1,0,0,0,0,0,0
1173,1970-01-01 00:09:46.500,-0.25317684,0.06746112,0.9679236,23.583,-7.4956,-71.141,1,0,0,0,0,0,0
1174,1970-01-01 00:09:47.000,-0.1642242,0.10144056,0.98182672,36.5512,-15.4252,-136.7646,1,0,0,0,0,0,0
1175,1970-01-01 00:09:47.500,-0.14123208,0.27811608,1.00980864,1.8676,-3.584,25.5556,1,0,0,0,0,0,0
1176,1970-01-01 00:09:48.000,-0.3066592,-0.22457516,0.94936252,3.6512,-13.6962,-40.8184,1,0,0,0,0,0,0
1177,1970-01-01 00:09:48.500,-0.03100264,0.20378392,1.05153508,-25.5444,2.7524,79.0636,1,0,0,0,0,0,0
1178,1970-01-01 00:09:49.000,-0.5429854,0.30832816,0.89085376,-27.0536,3.6834,119.4774,1,0,0,0,0,0,0
1179,1970-01-01 00:09:49.500,-0.58982608,0.12626512,0.8985666,35.0406,-18.76,-56.0196,1,0,0,0,0,0,0
1180,1970-01-01 00:09:50.000,-0.443409,0.06229564,0.96768692,-40.1506,25.7362,120.4994,1,0,0,0,0,0,0
1181,1970-01-01 00:09:50.500,-0.38632276,0.13083524,0.98492308,23.268,-2.1098,75.9906,1,0,0,0,0,0,0
1182,1970-01-01 00:09:51.000,-0.33876472,0.1490962,0.93447852,-28.5992,-9.0482,-41.1082,1,0,0,0,0,0,0
1183,1970-01-01 00:09:51.500,-0.3719658,0.15570128,0.91237456,24.017,-33.8562,-118.9692,1,0,0,0,0,0,0
1184,1970-01-01 00:09:52.000,-0.2475014,0.07437364,0.96435876,0.0098,-9.688,-1.6072,1,0,0,0,0,0,0
1185,1970-01-01 00:09:52.500,-0.26781196,0.08985056,0.95816116,17.3866,-8.5372,-50.3244,1,0,0,0,0,0,0
1186,1970-01-01 00:09:53.000,-0.22329172,0.4106154,0.9669476,5.3704,2.919,-25.9476,1,0,0,0,0,0,0
1187,1970-01-01 00:09:53.500,-0.50395272,0.01994944,0.83499972,6.503,-21.2086,50.9264,1,0,0,0,0,0,0
1188,1970-01-01 00:09:54.000,-0.48601384,-0.33204496,0.9326046,30.5396,-14.3906,-110.292,1,0,0,0,0,0,0
1189,1970-01-01 00:09:54.500,-0.39328896,0.03775168,0.95600176,-45.7492,13.8096,239.75,1,0,0,0,0,0,0
1190,1970-01-01 00:09:55.000,-0.41125468,0.18210696,0.92059736,-1.2516,-16.3646,-80.2354,1,0,0,0,0,0,0
1191,1970-01-01 00:09:55.500,-0.2176724,0.12036276,0.93472984,7.679,-5.0568,1.0108,1,0,0,0,0,0,0
1192,1970-01-01 00:09:56.000,-0.22219128,0.04135556,0.97532656,-10.4076,-8.9894,-5.2934,1,0,0,0,0,0,0
1193,1970-01-01 00:09:56.500,-0.2339716,0.0697108,0.96834084,27.1754,-7.8498,-81.7726,1,0,0,0,0,0,0
1194,1970-01-01 00:09:57.000,-0.25827156,0.09251992,0.9602498,5.0946,-1.4966,-0.5292,1,0,0,0,0,0,0
1195,1970-01-01 00:09:57.500,-0.24816264,0.07951716,0.96658892,0.924,-10.7086,0.1876,1,0,0,0,0,0,0
1196,1970-01-01 00:09:58.000,-0.19911132,0.16683744,1.02974832,22.071,-10.2452,-95.9616,1,0,0,0,0,0,0
1197,1970-01-01 00:09:58.500,-0.21379524,0.08347484,0.97869864,-6.5492,-0.0126,0.3122,1,0,0,0,0,0,0
1198,1970-01-01 00:09:59.000,-0.25719796,0.07443708,0.9576024,-5.4894,-12.0638,38.3096,1,0,0,0,0,0,0
1199,1970-01-01 00:09:59.500,-0.25290112,0.060634,0.96042304,3.731,-7.7812,-3.4832,1,0,0,0,0,0,0
1200,1970-01-01 00:10:00.000,-0.04740432,0.25532648,1.12411532,-31.4048,2.786,40.6098,1,0,0,0,0,0,0
1201,1970-01-01 00:10:00.500,-0.637938,0.38611048,0.89700012,0.7616,-16.3254,101.2858,1,0,0,0,0,0,0
1202,1970-01-01 00:10:01.000,-0.33607584,-0.42517976,0.99368024,19.7568,-11.886,-64.8186,1,0,0,0,0,0,0
1203,1970-01-01 00:10:01.500,-0.52744504,0.73032616,0.82849956,-8.862,0.6006,3.633,1,0,0,0,0,0,0
1204,1970-01-01 00:10:02.000,-0.49700848,-0.2031788,0.83724452,-21.546,10.3264,92.3692,1,0,0,0,0,0,0
1205,1970-01-01 00:10:02.500,-0.30760592,0.0396744,0.97422612,17.9998,-11.3372,-46.0782,1,0,0,0,0,0,0
1206,1970-01-01 00:10:03.000,-0.23549904,0.1387872,0.95514532,-5.7666,-7.4886,-23.5984,1,0,0,0,0,0,0
1207,1970-01-01 00:10:03.500,-0.24832612,0.0553514,0.96738192,1.4532,-6.1012,0.1568,1,0,0,0,0,0,0
1208,1970-01-01 00:10:04.000,-0.25309388,0.06138552,0.96597404,26.7134,-19.7078,-116.3722,1,0,0,0,0,0,0
1209,1970-01-01 00:10:04.500,-0.22356988,0.07390272,0.97343068,1.5778,-3.9102,0.2156,1,0,0,0,0,0,0
1210,1970-01-01 00:10:05.000,-0.23465968,0.05703012,0.97116636,3.2676,-7.8974,-29.3986,1,0,0,0,0,0,0
1211,1970-01-01 00:10:05.500,-0.24125256,-0.00152256,0.99699864,10.4692,-13.5128,-67.284,1,0,0,0,0,0,0
1212,1970-01-01 00:10:06.000,-0.24928748,0.1057008,0.95693384,-18.1664,0.2338,82.0932,1,0,0,0,0,0,0
1213,1970-01-01 00:10:06.500,-0.00349652,0.03719292,1.06824176,-27.4442,36.288,2.772,1,0,0,0,0,0,0
1214,1970-01-01 00:10:07.000,-0.51633328,0.3177978,0.8977248,27.86,-66.5154,78.9516,1,0,0,0,0,0,0
1215,1970-01-01 00:10:07.500,-0.40410304,-0.13029112,0.99588844,3.143,-9.5018,-65.1182,1,0,0,0,0,0,0
1216,1970-01-01 00:10:08.000,-0.29514484,0.16555888,0.95467684,-29.7752,12.8408,118.5352,1,0,0,0,0,0,0
