,acc_x,acc_y,acc_z,vel_x,vel_y,vel_z,labelAtaxicGait,labelBradykinesia,labelFreezingOfGait,labelMuscleAtrophy,labelMyopathicGait,labelNoPathologicalGait,labelSittingWithTremor
1970-01-01 00:00:00.000,-0.22120064,-0.027962400000000002,-0.95535515999999998,1.0849999999999995,-10.992799999999999,-17.599399999999999,0,0,1,0,0,0,0
1970-01-01 00:00:00.500,-0.25126875999999998,-0.057305840000000004,-0.93211172000000009,-9.9847999999999999,2.5564,-0.63699999999999979,0,0,1,0,0,0,0
1970-01-01 00:00:01.000,-0.27666916000000003,-0.032112840000000011,-0.94358704000000015,0.43820000000000009,4.5192000000000005,4.4996,0,0,1,0,0,0,0
1970-01-01 00:00:01.500,-0.22861823999999997,-0.022770080000000009,-0.95725347999999988,1.0038,-3.0884000000000005,0.039200000000000103,0,0,1,0,0,0,0
1970-01-01 00:00:02.000,-0.21405631999999997,-0.024990480000000002,-0.95933723999999998,-1.8199999999999996,-1.6785999999999999,1.6869999999999998,0,0,1,0,0,0,0
1970-01-01 00:00:02.500,-0.23803907999999996,-0.025729799999999997,-0.95458900000000013,-1.3593999999999999,0.82880000000000009,1.1101999999999999,0,0,1,0,0,0,0
1970-01-01 00:00:03.000,-0.22091028000000001,-0.020069,-0.95952755999999995,-1.9319999999999999,-0.54460000000000008,2.7887999999999993,0,0,1,0,0,0,0
1970-01-01 00:00:03.500,-0.24745747999999998,-0.047999679999999989,-0.94548292000000023,-3.3586,-9.4038000000000004,-15.825599999999998,0,0,1,0,0,0,0
1970-01-01 00:00:04.000,-0.23605048000000001,-0.024646440000000006,-0.94231824000000008,-6.493199999999999,-1.5176000000000016,-0.27999999999999964,0,0,1,0,0,0,0
1970-01-01 00:00:04.500,-0.17797116000000002,-0.032632560000000012,-0.95434743999999982,0.39479999999999948,11.463199999999999,4.9210000000000003,0,0,1,0,0,0,0
1970-01-01 00:00:05.000,-0.23909560000000002,-0.040982239999999989,-0.94894772000000005,-5.609799999999999,-15.161999999999999,-6.906200000000001,0,0,1,0,0,0,0
1970-01-01 00:00:05.500,-0.23224407999999999,-0.027054719999999997,-0.95574555999999999,-2.1335999999999999,-5.9094000000000024,-10.152800000000003,0,0,1,0,0,0,0
1970-01-01 00:00:06.000,-0.24269215999999999,-0.033059560000000002,-0.94576596000000024,-2.2637999999999998,9.2189999999999994,-5.875799999999999,0,0,1,0,0,0,0
1970-01-01 00:00:06.500,-0.25280596000000005,-0.019724960000000003,-0.94882815999999992,-6.1936,-0.8819999999999999,-10.9802,0,0,1,0,0,0,0
1970-01-01 00:00:07.000,-0.32897543999999995,-0.0047384800000000006,-0.90183620000000009,-4.0894000000000004,-8.9193999999999978,-1.2180000000000002,0,0,1,0,0,0,0
1970-01-01 00:00:07.500,-0.43778480000000003,-0.0031866399999999988,-0.84870763999999999,-1.8326,-20.652800000000003,-3.3432000000000004,0,0,1,0,0,0,0
1970-01-01 00:00:08.000,-0.38550048000000003,-0.015764839999999999,-0.87836584000000018,4.0529999999999999,9.6151999999999997,3.0814000000000004,0,0,1,0,0,0,0
1970-01-01 00:00:08.500,-0.36853516000000008,-0.043734559999999999,-0.91359699999999988,1.2627999999999995,22.003800000000002,12.601400000000002,0,0,1,0,0,0,0
1970-01-01 00:00:09.000,-0.15942716000000001,-0.025829839999999982,-0.96043036000000004,13.053600000000001,-2.0285999999999955,36.020600000000002,0,0,1,0,0,0,0
1970-01-01 00:00:09.500,-0.21405144000000001,-0.043783360000000007,-0.95291271999999994,-9.4948000000000015,2.5801999999999987,-12.7372,0,0,1,0,0,0,0
1970-01-01 00:00:10.000,-0.28822499999999995,-0.036033920000000004,-0.94677856000000016,5.9877999999999973,-24.400600000000004,8.3873999999999995,0,0,1,0,0,0,0
1970-01-01 00:00:10.500,-0.27077656,-0.02277496,-0.93791160000000007,-1.7373999999999998,5.4249999999999989,-6.6429999999999998,0,0,1,0,0,0,0
1970-01-01 00:00:11.000,-0.24104272000000002,-0.018597680000000005,-0.94922099999999998,-6.4497999999999998,2.8839999999999986,-1.7359999999999998,0,0,1,0,0,0,0
1970-01-01 00:00:11.500,-0.32217028000000009,-0.0204838,-0.91375804000000005,-0.5726,-8.2949999999999999,-13.8796,0,0,1,0,0,0,0
1970-01-01 00:00:12.000,-0.26279044000000001,-0.056800759999999999,-0.94661507999999994,10.9634,1.6898000000000009,17.239600000000003,0,0,1,0,0,0,0
1970-01-01 00:00:12.500,-0.22601476000000001,-0.02932392,-0.94656871999999992,0.1973999999999998,-0.51800000000000013,20.2958,0,0,1,0,0,0,0
1970-01-01 00:00:13.000,-0.19194503999999998,-0.025942079999999992,-0.95053371999999992,-0.44939999999999924,9.5101999999999975,-1.8368000000000004,0,0,1,0,0,0,0
1970-01-01 00:00:13.500,-0.23979831999999998,-0.015237800000000001,-0.95018723999999988,-3.9493999999999998,-8.974000000000002,1.7387999999999997,0,0,1,0,0,0,0
1970-01-01 00:00:14.000,-0.50142487999999996,-0.019776200000000001,-0.72856448000000018,-7.7490000000000006,-130.78799999999998,-8.514800000000001,0,0,1,0,0,0,0
1970-01-01 00:00:14.500,-0.50721499999999997,-0.0024424399999999997,-0.79111144,-7.7741999999999996,51.041199999999996,-3.9045999999999998,0,0,1,0,0,0,0
1970-01-01 00:00:15.000,-0.52303596000000008,0.02016416,-0.78838107999999996,5.9682000000000004,10.025400000000001,7.4032000000000009,0,0,1,0,0,0,0
1970-01-01 00:00:15.500,-0.54227048,0.0092329600000000019,-0.79680883999999996,1.3692,-9.2595999999999989,-1.6869999999999996,0,0,1,0,0,0,0
1970-01-01 00:00:16.000,-0.51466920000000005,-0.020183680000000009,-0.92024355999999996,5.2262000000000004,71.324399999999997,-8.5848000000000013,0,0,1,0,0,0,0
1970-01-01 00:00:16.500,-0.25765912000000002,0.012746560000000007,-0.94969680000000001,3.4860000000000002,9.4626000000000019,14.002800000000001,0,0,1,0,0,0,0
1970-01-01 00:00:17.000,-0.22022708000000002,-0.017202000000000009,-0.94954064000000005,3.3557999999999995,-7.1805999999999983,10.136000000000001,0,0,1,0,0,0,0
1970-01-01 00:00:17.500,-0.41189640000000005,-0.0019617600000000038,-0.79852903999999991,-26.121200000000002,-129.02680000000001,-9.6879999999999988,0,0,1,0,0,0,0
1970-01-01 00:00:18.000,-0.25182508000000003,-0.031903000000000022,-0.93481524000000027,-0.4004000000000012,-10.572799999999999,-15.640799999999999,0,0,1,0,0,0,0
1970-01-01 00:00:18.500,-0.20972044000000001,-0.027596399999999993,-0.95241251999999998,-4.7404000000000002,5.3914,3.4873999999999996,0,0,1,0,0,0,0
1970-01-01 00:00:19.000,-0.29035512000000002,-0.038800880000000003,-0.93326340000000019,-5.9639999999999995,0.21000000000000058,-9.9917999999999996,0,0,1,0,0,0,0
1970-01-01 00:00:19.500,-0.14419179999999998,-0.024692800000000004,-0.99427803999999997,2.0048000000000004,-64.054199999999994,-5.7890000000000006,0,0,1,0,0,0,0
1970-01-01 00:00:20.000,-0.64999403999999994,-0.020242239999999998,-0.64197863999999993,-7.9478000000000009,-62.910400000000003,4.5051999999999994,0,0,1,0,0,0,0
1970-01-01 00:00:20.500,-0.45284448000000005,-0.013115000000000002,-0.83486795999999996,3.4762000000000004,93.778999999999996,-3.2227999999999999,0,0,1,0,0,0,0
1970-01-01 00:00:21.000,-0.38435368000000003,-0.043375879999999992,-0.90210704000000008,23.3688,-78.405600000000007,15.563799999999999,0,0,1,0,0,0,0
1970-01-01 00:00:21.500,-0.21870695999999995,-0.15634787999999999,-0.98292959999999996,-0.39760000000000095,85.808800000000005,5.5328000000000017,0,0,1,0,0,0,0
1970-01-01 00:00:22.000,-0.42468931999999993,0.08385303999999999,-0.8617445600000001,-10.257800000000001,13.172599999999996,-3.8401999999999998,0,0,1,0,0,0,0
1970-01-01 00:00:22.500,-0.20378879999999999,0.0017104400000000034,-0.94429219999999991,-8.3104000000000013,-100.40799999999999,0.73360000000000014,0,0,1,0,0,0,0
1970-01-01 00:00:23.000,-0.68347572000000001,-0.0018007199999999996,-0.64196644000000003,-5.0343999999999998,29.896999999999998,-12.4726,0,0,1,0,0,0,0
1970-01-01 00:00:23.500,-0.59947872000000002,0.0012053600000000019,-0.71360727999999995,-10.990000000000002,-35.599200000000003,-7.625799999999999,0,0,1,0,0,0,0
1970-01-01 00:00:24.000,-0.55653472000000004,-0.015576960000000003,-0.76849751999999993,3.6077999999999992,62.567399999999999,-7.8385999999999987,0,0,1,0,0,0,0
1970-01-01 00:00:24.500,-0.45756832000000003,-0.036068080000000002,-0.92916419999999988,7.0181999999999993,25.716600000000003,-4.1649999999999991,0,0,1,0,0,0,0
1970-01-01 00:00:25.000,-0.17664380000000005,-0.064923520000000012,-0.95534051999999992,2.5003999999999991,18.624199999999998,19.727399999999999,0,0,1,0,0,0,0
1970-01-01 00:00:25.500,-0.17402568000000002,-0.051003319999999998,-0.92125371999999983,-9.7440000000000015,0.048999999999998635,-6.6402000000000001,0,0,1,0,0,0,0
1970-01-01 00:00:26.000,-0.24087435999999995,-0.045574320000000001,-0.96288255999999994,1.1591999999999987,-6.6528000000000009,5.1114000000000006,0,0,1,0,0,0,0
1970-01-01 00:00:26.500,-0.31398652000000005,-0.0091134000000000007,-0.89975976000000002,1.9572000000000001,-55.228599999999986,1.7597999999999998,0,0,1,0,0,0,0
1970-01-01 00:00:27.000,-0.62441795999999994,-0.031881039999999999,-0.61051727999999994,-12.628000000000002,-133.65100000000001,-0.43819999999999992,0,0,1,0,0,0,0
1970-01-01 00:00:27.500,-0.84988372000000001,0.0204838,-0.44309180000000004,6.9159999999999995,-28.671999999999997,-2.7957999999999985,0,0,1,0,0,0,0
1970-01-01 00:00:28.000,-0.66256491999999989,0.0073712399999999977,-0.60877999999999999,-6.4357999999999995,67.251800000000003,14.7532,0,0,1,0,0,0,0
1970-01-01 00:00:28.500,-0.83773984000000001,-0.0047482399999999982,-0.45601648000000006,-8.5553999999999988,44.340800000000002,-1.6940000000000004,0,0,1,0,0,0,0
1970-01-01 00:00:29.000,-0.41939452000000005,-0.012317120000000008,-0.91840867999999998,4.4576000000000002,93.204999999999998,-7.3094000000000001,0,0,1,0,0,0,0
1970-01-01 00:00:29.500,-0.18389303999999998,-0.030551239999999997,-0.96328272000000004,3.0267999999999988,11.773999999999999,18.942000000000004,0,0,1,0,0,0,0
1970-01-01 00:00:30.000,-0.14854719999999999,-0.0056266400000000126,-0.95708999999999989,11.766999999999998,3.3865999999999978,16.903599999999997,0,0,1,0,0,0,0
1970-01-01 00:00:30.500,-0.26193399999999994,-0.030531719999999998,-0.95330799999999993,-1.9096000000000009,-8.1507999999999985,1.7681999999999989,0,0,1,0,0,0,0
1970-01-01 00:00:31.000,-0.38311416000000004,0.01006256,-0.88985336000000004,-3.6778000000000004,-57.266999999999996,-14.251999999999999,0,0,1,0,0,0,0
1970-01-01 00:00:31.500,-0.75894248000000009,0.011087360000000001,-0.52699364000000004,-0.20860000000000001,-175.11759999999998,7.6090000000000009,0,0,1,0,0,0,0
1970-01-01 00:00:32.000,-0.73186580000000001,-6.0999999999996888e-05,-0.48927855999999997,-12.436199999999999,103.32699999999998,3.2354000000000003,0,0,1,0,0,0,0
1970-01-01 00:00:32.500,-0.75439431999999995,0.0068490799999999996,-0.52495380000000003,2.6082000000000001,-30.126600000000003,-2.3701999999999996,0,0,1,0,0,0,0
1970-01-01 00:00:33.000,-0.56205888000000004,0.020291039999999996,-0.77462923999999989,4.2126000000000001,56.022400000000005,0.69860000000000044,0,0,1,0,0,0,0
1970-01-01 00:00:33.500,-0.49094020000000005,-0.01523292,-0.84493296000000018,-31.669399999999996,91.82459999999999,-33.014800000000008,0,0,1,0,0,0,0
1970-01-01 00:00:34.000,-0.18368563999999998,-0.0078689999999999975,-0.96196755999999994,26.067999999999994,-21.273000000000003,26.089000000000002,0,0,1,0,0,0,0
1970-01-01 00:00:34.500,-0.13935084,-0.043824840000000018,-0.89625591999999998,-8.463000000000001,-9.664200000000001,10.3348,0,0,1,0,0,0,0
1970-01-01 00:00:35.000,-0.26329796,-0.026273919999999999,-0.94944304000000002,1.1339999999999995,-112.52500000000001,-0.79799999999999993,0,0,1,0,0,0,0
1970-01-01 00:00:35.500,-0.63346791999999996,0.020081200000000004,-0.65535228000000001,9.0089999999999986,-100.59839999999998,15.442,0,0,1,0,0,0,0
1970-01-01 00:00:36.000,-0.18405896000000002,-0.014486280000000001,-0.98588931999999985,7.9744000000000002,-17.722599999999996,9.4920000000000009,0,0,1,0,0,0,0
1970-01-01 00:00:36.500,-0.22808388000000002,-0.044061520000000014,-0.91194023999999996,-7.9478,5.4753999999999969,-20.4848,0,0,1,0,0,0,0
1970-01-01 00:00:37.000,-0.17058040000000005,-0.027933120000000002,-0.94363583999999989,-0.16240000000000038,18.999399999999994,5.4669999999999979,0,0,1,0,0,0,0
1970-01-01 00:00:37.500,-0.32638172000000004,-0.016655440000000001,-0.85643024000000001,-12.033000000000001,-99.068200000000019,9.7370000000000019,0,0,1,0,0,0,0
1970-01-01 00:00:38.000,-0.72901099999999985,0.00068320000000000132,-0.54152872000000007,-1.2418000000000011,-84.058800000000005,7.2183999999999999,0,0,1,0,0,0,0
1970-01-01 00:00:38.500,-0.7480869200000001,0.025922560000000004,-0.56045824,1.7359999999999998,-34.953800000000001,13.613600000000002,0,0,1,0,0,0,0
1970-01-01 00:00:39.000,-0.69655411999999983,0.022191799999999998,-0.61567543999999996,7.8932000000000002,62.959399999999995,-4.2027999999999999,0,0,1,0,0,0,0
1970-01-01 00:00:39.500,-0.50982335999999995,-0.053501880000000002,-0.86600480000000002,-6.2355999999999998,150.53220000000002,-11.603200000000001,0,0,1,0,0,0,0
1970-01-01 00:00:40.000,-0.20860292000000002,0.023716799999999996,-0.99050336000000005,14.184800000000001,-22.447599999999998,32.621400000000001,0,0,1,0,0,0,0
1970-01-01 00:00:40.500,-0.088423160000000042,-0.15545972,-0.94991395999999995,-11.253199999999998,-23.97359999999999,1.8354000000000008,0,0,1,0,0,0,0
1970-01-01 00:00:41.000,-0.0090938799999999917,-0.15231700000000001,-0.96538111999999998,22.257199999999997,36.134000000000007,-21.097999999999999,0,0,1,0,0,0,0
1970-01-01 00:00:41.500,-0.33963336000000005,0.056881279999999999,-0.98665548000000003,-30.374399999999994,-89.664400000000001,13.365799999999997,0,0,1,0,0,0,0
1970-01-01 00:00:42.000,-0.70761463999999974,0.11171540000000001,-0.56015568000000004,-35.578200000000002,-76.255200000000016,-22.479800000000001,0,0,1,0,0,0,0
1970-01-01 00:00:42.500,-0.61881083999999997,0.038125000000000006,-0.6769902000000001,-0.49979999999999991,-20.173999999999996,-0.57959999999999956,0,0,1,0,0,0,0
1970-01-01 00:00:43.000,-0.77730591999999987,0.039149800000000005,-0.51971023999999999,1.4377999999999997,2.5983999999999967,12.9696,0,0,1,0,0,0,0
1970-01-01 00:00:43.500,-0.75538495999999999,0.046052559999999999,-0.49004715999999993,8.5889999999999969,50.247399999999999,12.728800000000001,0,0,1,0,0,0,0
1970-01-01 00:00:44.000,-0.52024703999999999,0.024497600000000008,-0.88925556000000017,-3.057599999999999,141.87459999999999,-34.092799999999997,0,0,1,0,0,0,0
1970-01-01 00:00:44.500,-0.066350920000000008,0.012258559999999984,-0.90833880000000011,2.300199999999998,-4.0669999999999957,22.548400000000001,0,0,1,0,0,0,0
1970-01-01 00:00:45.000,0.013793319999999984,-0.15081639999999999,-1.0254588,12.891200000000001,-35.181999999999995,-3.246599999999999,0,0,1,0,0,0,0
1970-01-01 00:00:45.500,-0.29674548000000001,0.023955919999999988,-0.9108641999999999,-19.590199999999999,-25.377799999999997,-3.1794000000000007,0,0,1,0,0,0,0
1970-01-01 00:00:46.000,-0.77925060000000013,0.057891440000000002,-0.46135520000000002,-14.558600000000002,-56.835799999999999,-11.086599999999999,0,0,1,0,0,0,0
1970-01-01 00:00:46.500,-0.64329380000000003,0.028052679999999993,-0.68391004,1.3271999999999995,-26.150599999999994,2.7902000000000013,0,0,1,0,0,0,0
1970-01-01 00:00:47.000,-0.60130627999999997,0.0087376399999999979,-0.72785443999999999,12.192600000000001,-36.226400000000005,13.969200000000001,0,0,1,0,0,0,0
1970-01-01 00:00:47.500,-0.65376140000000005,0.016518799999999997,-0.67683403999999991,4.2070000000000007,85.80040000000001,6.2957999999999981,0,0,1,0,0,0,0
1970-01-01 00:00:48.000,-0.38845531999999999,-0.062651879999999993,-0.91033716000000009,-5.7526000000000002,76.308400000000006,-16.576000000000001,0,0,1,0,0,0,0
1970-01-01 00:00:48.500,-0.044261599999999977,-0.019256479999999979,-0.96138196000000009,3.7912000000000008,13.253800000000004,6.9075999999999995,0,0,1,0,0,0,0
1970-01-01 00:00:49.000,-0.077160120000000013,-0.11988451999999999,-0.93944147999999994,-0.80499999999999827,-18.871999999999993,5.5146000000000006,0,0,1,0,0,0,0
1970-01-01 00:00:49.500,-0.10968531999999998,-0.046094039999999989,-0.91674216000000019,4.0263999999999998,-151.20419999999999,13.3028,0,0,1,0,0,0,0
1970-01-01 00:00:50.000,-0.76335399999999998,0.03604856,-0.52983623999999996,-12.220599999999999,-3.5643999999999996,5.0092000000000017,0,0,1,0,0,0,0
1970-01-01 00:00:50.500,-0.62252695999999996,0.0004367600000000018,-0.69138864,-4.2028000000000008,13.718599999999995,-9.1251999999999995,0,0,1,0,0,0,0
1970-01-01 00:00:51.000,-0.55081780000000002,-0.033618320000000007,-0.77030067999999985,-1.3272000000000004,63.338799999999999,4.8944000000000001,0,0,1,0,0,0,0
1970-01-01 00:00:51.500,-0.40974188,-0.0061317199999999994,-0.87403728000000003,-0.87220000000000042,26.256999999999998,-1.8284,0,0,1,0,0,0,0
1970-01-01 00:00:52.000,-0.28054632000000002,-0.098666280000000009,-0.90911227999999999,15.6142,9.2525999999999993,8.3271999999999995,0,0,1,0,0,0,0
1970-01-01 00:00:52.500,-0.33059316000000005,0.049507599999999999,-0.93065016,-8.3748000000000022,28.298200000000001,-9.9834000000000032,0,0,1,0,0,0,0
1970-01-01 00:00:53.000,-0.23060684000000001,-0.092454039999999973,-0.91381904000000003,-5.210799999999999,0.40039999999999965,-4.9826000000000006,0,0,1,0,0,0,0
1970-01-01 00:00:53.500,-0.22823271999999994,-0.064120759999999999,-0.96641812000000016,-12.047000000000001,1.591799999999999,-2.948399999999999,0,0,1,0,0,0,0
1970-01-01 00:00:54.000,-0.23360072000000001,-0.00081252000000002988,-0.88608843999999987,-13.774599999999996,27.5534,-16.860199999999999,0,0,1,0,0,0,0
1970-01-01 00:00:54.500,-0.28198348000000001,0.005563200000000006,-0.89848119999999998,-7.5669999999999993,-30.963799999999992,10.130400000000002,0,0,1,0,0,0,0
1970-01-01 00:00:55.000,-0.40134340000000002,-0.0012639199999999998,-0.83544379999999985,-5.2360000000000007,-30.867200000000004,-11.524800000000001,0,0,1,0,0,0,0
1970-01-01 00:00:55.500,-0.40092128000000005,-0.03494324,-0.8602317599999999,13.6038,-71.264199999999988,6.7955999999999994,0,0,1,0,0,0,0
1970-01-01 00:00:56.000,-0.59770484000000002,-0.042770759999999998,-0.75071235999999997,-7.3233999999999995,91.243600000000001,-0.83999999999999919,0,0,1,0,0,0,0
1970-01-01 00:00:56.500,-0.38881644000000004,-0.032032320000000003,-0.87929060000000003,-2.1644000000000019,39.4968,-10.325000000000003,0,0,1,0,0,0,0
1970-01-01 00:00:57.000,-0.27097663999999999,-0.057662079999999998,-0.93926335999999988,2.6306000000000016,2.574599999999998,31.274600000000007,0,0,1,0,0,0,0
1970-01-01 00:00:57.500,-0.17780280000000001,-0.041153039999999981,-0.92143916000000003,-4.4772000000000016,-1.6478000000000028,-14.361199999999995,0,0,1,0,0,0,0
1970-01-01 00:00:58.000,-0.19831344000000001,-0.13808203999999999,-0.96753075999999993,-0.072800000000002141,1.751400000000003,-2.5745999999999998,0,0,1,0,0,0,0
1970-01-01 00:00:58.500,-0.29769220000000002,-0.033850119999999997,-0.88442923999999989,-7.4522000000000004,-107.36600000000003,14.256199999999996,0,0,1,0,0,0,0
1970-01-01 00:00:59.000,-0.60046692000000002,0.045225399999999992,-0.73135584000000009,-5.0890000000000004,-69.421800000000005,5.2737999999999996,0,0,1,0,0,0,0
1970-01-01 00:00:59.500,-0.66941888000000005,0.0056388399999999991,-0.63655207999999996,1.932000000000001,45.192,-0.45920000000000016,0,0,1,0,0,0,0
1970-01-01 00:01:00.000,-0.63060092000000001,-0.0078494800000000024,-0.69957239999999998,11.3414,3.4103999999999992,2.7020000000000004,0,0,1,0,0,0,0
1970-01-01 00:01:00.500,-0.32855087999999993,-0.08494372,-0.92040215999999997,-11.432400000000003,27.008799999999997,26.577600000000004,0,0,1,0,0,0,0
1970-01-01 00:01:01.000,-0.37255384000000008,0.008335039999999995,-0.89356459999999993,22.376199999999997,51.346399999999996,-15.057,0,0,1,0,0,0,0
1970-01-01 00:01:01.500,-0.14569972000000003,-0.097268159999999992,-0.91575884000000007,5.4824000000000002,8.9543999999999961,2.1993999999999998,0,0,1,0,0,0,0
1970-01-01 00:01:02.000,-0.25627320000000003,-0.010538359999999998,-0.95923720000000001,-20.190799999999996,40.903800000000004,-6.8306000000000004,0,0,1,0,0,0,0
1970-01-01 00:01:02.500,-0.24791619999999998,-0.046467359999999999,-0.91972628000000001,-6.4386000000000001,-117.90940000000001,8.8116000000000003,0,0,1,0,0,0,0
1970-01-01 00:01:03.000,-0.59843928000000002,0.05588332,-0.70132188000000018,-23.6586,1.8452000000000004,-1.2781999999999996,0,0,1,0,0,0,0
1970-01-01 00:01:03.500,-0.57175788000000005,0.029463000000000007,-0.7521763600000001,-11.552800000000001,-24.210199999999997,-4.5696000000000012,0,0,1,0,0,0,0
1970-01-01 00:01:04.000,-0.55749608000000006,0.044029799999999994,-0.77400704000000009,10.766000000000002,69.385400000000004,3.8794000000000004,0,0,1,0,0,0,0
1970-01-01 00:01:04.500,-0.43426875999999992,0.036363319999999998,-0.89085132,0.34019999999999984,-52.407600000000002,19.3186,0,0,1,0,0,0,0
1970-01-01 00:01:05.000,-0.33671511999999998,0.030226720000000006,-0.91022004000000023,11.040400000000002,109.0376,-20.837600000000002,0,0,1,0,0,0,0
1970-01-01 00:01:05.500,-0.23343235999999998,-0.014659520000000006,-0.92444767999999999,1.3187999999999993,-1.297799999999997,6.1432000000000002,0,0,1,0,0,0,0
1970-01-01 00:01:06.000,-0.27735235999999996,-0.032478840000000002,-0.91913579999999984,1.5050000000000008,0.51100000000000145,-3.2521999999999998,0,0,1,0,0,0,0
1970-01-01 00:01:06.500,-0.25192024000000002,-0.060453439999999997,-0.94037356000000005,2.1028000000000024,-3.5448000000000004,0.46899999999999875,0,0,1,0,0,0,0
1970-01-01 00:01:07.000,-0.28809567999999997,-0.036292560000000001,-0.91531476000000001,-12.565,-52.206000000000003,1.1913999999999993,0,0,1,0,0,0,0
1970-01-01 00:01:07.500,-0.52204287999999999,0.035375119999999996,-0.79997107999999995,-7.8091999999999997,8.1270000000000024,7.5418000000000003,0,0,1,0,0,0,0
1970-01-01 00:01:08.000,-0.57648659999999996,0.039471880000000001,-0.72999676000000013,2.9175999999999997,-67.288199999999989,3.8961999999999999,0,0,1,0,0,0,0
1970-01-01 00:01:08.500,-0.47084436000000002,-0.0044432399999999976,-0.83914040000000012,11.547199999999998,-21.726599999999998,2.0005999999999999,0,0,1,0,0,0,0
1970-01-01 00:01:09.000,-0.53722212000000003,0.0056973999999999992,-0.7416038399999999,-3.0436000000000001,47.597199999999994,2.6669999999999994,0,0,1,0,0,0,0
1970-01-01 00:01:09.500,-0.39874235999999991,-0.036497520000000006,-0.83906231999999992,-2.6949999999999998,42.785400000000003,6.1865999999999994,0,0,1,0,0,0,0
1970-01-01 00:01:10.000,-0.25823740000000001,0.010731119999999999,-1.00323528,18.559800000000003,4.1439999999999984,8.4475999999999996,0,0,1,0,0,0,0
1970-01-01 00:01:10.500,-0.30796948000000002,-0.057574239999999985,-0.89850316000000008,-14.039200000000001,26.017599999999998,-20.986000000000001,0,0,1,0,0,0,0
1970-01-01 00:01:11.000,-0.27841132000000007,-0.039096120000000026,-0.94252563999999994,-7.6202000000000005,1.2656000000000009,-6.6472000000000007,0,0,1,0,0,0,0
1970-01-01 00:01:11.500,-0.24418788000000002,-0.065457879999999996,-0.9138409999999999,-1.6477999999999997,-75.399799999999999,-11.440799999999999,0,0,1,0,0,0,0
1970-01-01 00:01:12.000,-0.30580763999999999,-0.011058080000000005,-0.95713148000000003,-12.773600000000002,-8.7289999999999974,7.0644000000000009,0,0,1,0,0,0,0
1970-01-01 00:01:12.500,-0.23392768,-0.0048287600000000274,-0.99406576000000002,-7.4452000000000025,-3.9970000000000003,-5.2681999999999993,0,0,1,0,0,0,0
1970-01-01 00:01:13.000,-0.37539400000000001,-0.030448759999999998,-0.83010996000000004,-25.998000000000001,37.934399999999989,-13.851600000000001,0,0,1,0,0,0,0
1970-01-01 00:01:13.500,-0.61225943999999999,0.011580239999999999,-0.65858771999999988,5.6518000000000006,-177.94560000000001,13.9496,0,0,1,0,0,0,0
1970-01-01 00:01:14.000,-0.72786908000000006,0.0082984400000000007,-0.63858703999999999,-9.1462000000000003,79.214800000000011,1.7122000000000002,0,0,1,0,0,0,0
1970-01-01 00:01:14.500,-0.55581491999999999,0.027274319999999998,-0.78564584000000015,-0.52079999999999971,3.0674000000000006,-0.044800000000000145,0,0,1,0,0,0,0
1970-01-01 00:01:15.000,-0.60352912000000003,0.03472364,-0.77891876000000015,8.916599999999999,100.8686,-6.9649999999999999,0,0,1,0,0,0,0
1970-01-01 00:01:15.500,-0.25229844000000001,-0.086910360000000006,-0.92772948,1.1200000000000006,2.4611999999999998,-0.11199999999999863,0,0,1,0,0,0,0
1970-01-01 00:01:16.000,-0.12183164000000002,-0.086007559999999983,-0.94429219999999991,30.5242,-34.480600000000003,29.815799999999999,0,0,1,0,0,0,0
1970-01-01 00:01:16.500,-0.19149852000000001,0.010545679999999993,-0.98821219999999999,-26.987800000000004,5.9345999999999979,-7.5011999999999981,0,0,1,0,0,0,0
1970-01-01 00:01:17.000,-0.31983764000000003,-0.0055363600000000049,-0.87267575999999991,-4.7179999999999982,28.574000000000002,-33.955599999999997,0,0,1,0,0,0,0
1970-01-01 00:01:17.500,-0.43281939999999997,0.021525680000000005,-0.8217480800000001,-12.961199999999998,-77.704199999999986,16.395399999999999,0,0,1,0,0,0,0
1970-01-01 00:01:18.000,-0.52749140000000005,0.024941679999999994,-0.74859443999999986,10.694600000000001,-24.037999999999997,1.9179999999999993,0,0,1,0,0,0,0
1970-01-01 00:01:18.500,-0.47151047999999995,-0.00087107999999999934,-0.83827664000000013,9.0860000000000003,1.5512000000000024,5.4334000000000007,0,0,1,0,0,0,0
1970-01-01 00:01:19.000,-0.55891616000000011,-0.014044639999999999,-0.75140288,-6.9159999999999995,22.565200000000004,2.7341999999999995,0,0,1,0,0,0,0
1970-01-01 00:01:19.500,-0.49352904000000003,-0.0048555999999999998,-0.82660367999999995,7.9953999999999983,25.678800000000003,-11.061400000000001,0,0,1,0,0,0,0
1970-01-01 00:01:20.000,-0.12556972,-0.12722648,-0.95867844000000024,24.217200000000002,-5.808600000000002,15.822800000000003,0,0,1,0,0,0,0
1970-01-01 00:01:20.500,-0.36670028000000005,0.094179119999999991,-0.94068344000000015,-38.105199999999996,28.247800000000005,-16.868600000000001,0,0,1,0,0,0,0
1970-01-01 00:01:21.000,-0.30938712000000002,-0.062359080000000032,-0.93416132000000018,2.0131999999999999,11.965800000000002,-8.3818000000000001,0,0,1,0,0,0,0
1970-01-01 00:01:21.500,-0.55576367999999998,0.0345016,-0.68601820000000002,-11.319000000000001,-142.40659999999997,18.597600000000003,0,0,1,0,0,0,0
1970-01-01 00:01:22.000,-0.70773176000000004,0.057396120000000009,-0.64722464000000002,9.8755999999999986,47.315799999999996,7.7420000000000009,0,0,1,0,0,0,0
1970-01-01 00:01:22.500,-0.76747271999999978,0.00063684000000000104,-0.52186476000000004,11.580800000000002,-88.312000000000012,-1.4839999999999998,0,0,1,0,0,0,0
1970-01-01 00:01:23.000,-0.53657063999999999,0.011992599999999996,-0.74202595999999998,3.0379999999999994,53.464599999999997,12.373199999999999,0,0,1,0,0,0,0
1970-01-01 00:01:23.500,-0.61240095999999999,0.00065636000000000004,-0.70577000000000001,5.4221999999999992,58.574600000000004,3.5266000000000002,0,0,1,0,0,0,0
1970-01-01 00:01:24.000,-0.52245036000000011,-0.011375279999999998,-0.86686856000000001,-9.7187999999999999,63.160999999999994,-36.217999999999996,0,0,1,0,0,0,0
1970-01-01 00:01:24.500,-0.13582016000000002,-0.10411480000000001,-0.94997251999999999,40.763799999999996,-41.3476,25.827200000000001,0,0,1,0,0,0,0
1970-01-01 00:01:25.000,-0.35524935999999996,-0.0099795999999999913,-0.93526176000000005,-27.461000000000002,24.946600000000004,-9.8895999999999997,0,0,1,0,0,0,0
1970-01-01 00:01:25.500,-0.27366064000000001,-0.12882223999999998,-0.89677808000000014,-16.301600000000004,10.554600000000002,-15.638000000000003,0,0,1,0,0,0,0
1970-01-01 00:01:26.000,-0.22741043999999999,-0.02860411999999999,-0.95587488000000009,-6.9986000000000024,-12.789000000000001,8.0513999999999992,0,0,1,0,0,0,0
1970-01-01 00:01:26.500,-0.58303556000000001,0.066153279999999995,-0.71801391999999997,0.39340000000000019,-151.23500000000001,12.252800000000002,0,0,1,0,0,0,0
1970-01-01 00:01:27.000,-0.57096975999999999,0.019236960000000011,-0.73178039999999978,10.907399999999997,75.993400000000008,0.70280000000000054,0,0,1,0,0,0,0
1970-01-01 00:01:27.500,-0.52039343999999987,0.0066343600000000032,-0.81560904000000012,2.7733999999999996,47.651800000000001,-6.2971999999999992,0,0,1,0,0,0,0
1970-01-01 00:01:28.000,-0.31144891999999996,-0.044988719999999996,-0.91902844000000006,-4.7208000000000006,27.468000000000004,-7.4395999999999978,0,0,1,0,0,0,0
1970-01-01 00:01:28.500,-0.34661908000000002,-0.016731080000000002,-0.93044031999999999,-1.1745999999999992,9.9820000000000011,1.0906000000000007,0,0,1,0,0,0,0
1970-01-01 00:01:29.000,-0.25954035999999997,-0.052994360000000018,-0.94580255999999996,11.715199999999999,-13.897800000000002,9.3170000000000002,0,0,1,0,0,0,0
1970-01-01 00:01:29.500,-0.1967372,-0.055407520000000002,-0.96736484,2.702,-0.60339999999999927,6.7508000000000008,0,0,1,0,0,0,0
1970-01-01 00:01:30.000,-0.22836692,-0.06869088000000001,-0.95659224000000009,-3.1640000000000019,2.3267999999999951,-18.7012,0,0,1,0,0,0,0
1970-01-01 00:01:30.500,-0.22891592000000002,-0.014598520000000004,-0.96020832000000012,-2.8868,-36.539999999999999,5.4879999999999995,0,0,1,0,0,0,0
1970-01-01 00:01:31.000,-0.60651812000000005,0.046750399999999998,-0.69339676000000017,-12.2416,-136.7296,22.715000000000003,0,0,1,0,0,0,0
1970-01-01 00:01:31.500,-0.77442427999999996,0.088040079999999993,-0.58843528,-1.6464000000000005,58.697800000000001,-0.65800000000000014,0,0,1,0,0,0,0
1970-01-01 00:01:32.000,-0.53868124000000006,0.074973879999999993,-0.78162716000000021,6.4497999999999989,13.724199999999996,-0.64820000000000011,0,0,1,0,0,0,0
1970-01-01 00:01:32.500,-0.4873997599999999,0.036848879999999994,-0.81048991999999997,5.9303999999999988,38.558799999999998,3.8961999999999999,0,0,1,0,0,0,0
1970-01-01 00:01:33.000,-0.44876968000000006,0.049661320000000009,-0.90067231999999975,3.7393999999999998,50.029000000000003,-14.7784,0,0,1,0,0,0,0
1970-01-01 00:01:33.500,-0.33669315999999994,-0.0098380799999999973,-0.93668428000000004,7.4787999999999997,-6.9117999999999995,27.867000000000004,0,0,1,0,0,0,0
1970-01-01 00:01:34.000,-0.027686680000000009,-0.17502851999999997,-0.97294024000000012,20.805399999999999,-21.810600000000004,9.7524000000000051,0,0,1,0,0,0,0
1970-01-01 00:01:34.500,-0.43322443999999999,0.14203239999999998,-0.95267115999999985,-28.7392,22.762599999999999,-37.160200000000003,0,0,1,0,0,0,0
1970-01-01 00:01:35.000,-0.46019620000000006,0.051984200000000008,-0.82937552000000014,-10.2354,-104.3434,24.6554,0,0,1,0,0,0,0
1970-01-01 00:01:35.500,-0.61312076000000004,0.10563735999999999,-0.69622227999999997,2.636200000000001,-2.0929999999999978,10.883599999999999,0,0,1,0,0,0,0
1970-01-01 00:01:36.000,-0.60006676000000003,0.047423839999999995,-0.75385020000000014,-1.6057999999999999,-26.549600000000002,-3.9774000000000007,0,0,1,0,0,0,0
1970-01-01 00:01:36.500,-0.58686148000000005,0.081757079999999996,-0.75395756000000003,7.7770000000000001,44.287600000000005,2.6474000000000006,0,0,1,0,0,0,0
1970-01-01 00:01:37.000,-0.37093856000000003,-0.058555119999999988,-0.93325364000000022,7.9897999999999998,7.9772000000000016,12.131000000000002,0,0,1,0,0,0,0
1970-01-01 00:01:37.500,-0.39043415999999992,0.10919976000000001,-0.89741247999999996,-2.7958000000000012,56.837199999999996,-54.147799999999997,0,0,1,0,0,0,0
1970-01-01 00:01:38.000,-0.26216092000000002,-0.02930927999999999,-0.92771727999999998,2.517199999999999,7.5305999999999971,14.611800000000001,0,0,1,0,0,0,0
1970-01-01 00:01:38.500,-0.26102876000000003,-0.057027680000000032,-0.91016392000000024,0.18059999999999868,-4.5094000000000003,-0.0098000000000024994,0,0,1,0,0,0,0
1970-01-01 00:01:39.000,-0.26625768,0.006890559999999997,-0.82723075999999995,8.8018000000000018,-98.091000000000022,17.390799999999999,0,0,1,0,0,0,0
1970-01-01 00:01:39.500,-0.65269756000000001,0.03284484,-0.83758368000000005,-18.313400000000001,-32.891599999999997,7.218399999999999,0,0,1,0,0,0,0
1970-01-01 00:01:40.000,-0.53458691999999997,0.057991480000000005,-0.74477584000000008,15.362200000000003,103.3956,9.1658000000000008,0,0,1,0,0,0,0
1970-01-01 00:01:40.500,-0.49183324000000006,0.039152240000000005,-0.81854191999999992,-4.3959999999999981,-65.993200000000002,2.5116000000000001,0,0,1,0,0,0,0
1970-01-01 00:01:41.000,-0.47840347999999999,0.050256679999999998,-0.8159311199999999,4.4618000000000002,39.922399999999996,-0.5236000000000004,0,0,1,0,0,0,0
1970-01-01 00:01:41.500,-0.35237747999999997,0.042787840000000008,-0.92388160000000008,-9.6768000000000001,-24.886399999999998,8.1172000000000004,0,0,1,0,0,0,0
1970-01-01 00:01:42.000,-0.41089356000000005,0.069213040000000003,-0.93592056000000012,29.450399999999998,62.312600000000003,-15.868999999999998,0,0,1,0,0,0,0
1970-01-01 00:01:42.500,-0.19171080000000004,-0.028099039999999992,-0.90017455999999996,-4.345600000000001,14.044800000000002,-6.8894000000000002,0,0,1,0,0,0,0
1970-01-01 00:01:43.000,-0.30491704000000003,-0.040960280000000002,-0.94566835999999999,2.3184,-10.712799999999998,2.3925999999999998,0,0,1,0,0,0,0
1970-01-01 00:01:43.500,-0.18938060000000001,-0.034665080000000001,-1.0014565200000001,7.5571999999999999,-40.483799999999995,13.346200000000001,0,0,1,0,0,0,0
1970-01-01 00:01:44.000,-0.51447399999999999,0.016128400000000001,-0.76152888000000007,-21.503999999999998,-14.590799999999994,6.6262000000000008,0,0,1,0,0,0,0
1970-01-01 00:01:44.500,-0.44024919999999995,0.035826520000000008,-0.85070355999999991,5.4320000000000004,19.084800000000005,9.1210000000000004,0,0,1,0,0,0,0
1970-01-01 00:01:45.000,-0.35500779999999993,0.039549960000000002,-0.91225988000000013,2.5312000000000001,18.797799999999999,-5.3717999999999995,0,0,1,0,0,0,0
1970-01-01 00:01:45.500,-0.30167672000000001,0.014857160000000001,-0.94028816000000004,0.40460000000000007,-15.856399999999999,1.1508,0,0,1,0,0,0,0
1970-01-01 00:01:46.000,-0.48155839999999989,-0.0046799200000000067,-0.87268064000000001,7.2631999999999985,34.012999999999991,-18.683000000000003,0,0,1,0,0,0,0
1970-01-01 00:01:46.500,-0.11844980000000001,-0.11791544,-0.89680980000000021,8.9404000000000003,-24.334799999999994,-6.2551999999999994,0,0,1,0,0,0,0
1970-01-01 00:01:47.000,-0.29976620000000009,-0.014559480000000005,-1.0438417600000001,11.2294,-19.224800000000005,18.527599999999996,0,0,1,0,0,0,0
1970-01-01 00:01:47.500,-0.32868263999999997,-0.034977399999999978,-0.8773068799999999,-37.174199999999999,36.588999999999999,-28.7364,0,0,1,0,0,0,0
1970-01-01 00:01:48.000,-0.23244904000000002,0.008400920000000001,-0.95912984000000012,-6.1151999999999997,2.6781999999999995,3.6903999999999995,0,0,1,0,0,0,0
1970-01-01 00:01:48.500,-0.12789503999999996,0.0054216800000000008,-1.0064707199999998,15.136799999999999,-24.039400000000001,11.418400000000002,0,0,1,0,0,0,0
1970-01-01 00:01:49.000,-0.18145060000000002,-0.061976000000000031,-0.94189856000000005,8.591800000000001,-18.916800000000002,21.5642,0,0,1,0,0,0,0
1970-01-01 00:01:49.500,-0.23976416000000003,-0.035855799999999986,-0.88872363999999993,-16.560599999999997,39.211199999999991,-34.899200000000008,0,0,1,0,0,0,0
1970-01-01 00:01:50.000,-0.31235903999999998,-0.021008400000000007,-0.90573287999999996,-4.9546000000000063,-67.054400000000001,25.090800000000005,0,0,1,0,0,0,0
1970-01-01 00:01:50.500,-0.53482847999999994,0.014239840000000005,-0.70897128000000009,2.2497999999999991,-30.059400000000004,14.064400000000001,0,0,1,0,0,0,0
1970-01-01 00:01:51.000,-0.43175067999999994,0.061488000000000008,-0.87439840000000002,4.9714,41.532399999999996,-0.87640000000000018,0,0,1,0,0,0,0
1970-01-01 00:01:51.500,-0.37647248000000005,0.027113280000000003,-0.88467567999999996,-5.2877999999999998,21.319199999999995,2.4611999999999998,0,0,1,0,0,0,0
1970-01-01 00:01:52.000,-0.44117396000000009,0.064008519999999999,-0.92188811999999998,17.6386,34.820799999999998,0.41299999999999926,0,0,1,0,0,0,0
1970-01-01 00:01:52.500,-0.065394439999999998,-0.13742080000000001,-0.93391244000000018,8.8381999999999987,-25.401599999999998,-1.140999999999998,0,0,1,0,0,0,0
1970-01-01 00:01:53.000,-0.23805128000000003,-0.042907399999999998,-0.98034564000000002,-7.922600000000001,-13.574400000000001,15.012200000000002,0,0,1,0,0,0,0
1970-01-01 00:01:53.500,-0.13899459999999997,-0.042763439999999979,-0.96375120000000014,-1.3327999999999991,-3.8779999999999926,-12.2318,0,0,1,0,0,0,0
1970-01-01 00:01:54.000,-0.35436607999999997,0.096821640000000042,-0.92696087999999988,-17.704399999999996,28.593599999999995,-13.948199999999996,0,0,1,0,0,0,0
1970-01-01 00:01:54.500,-0.54480563999999998,0.057374159999999987,-0.73598696000000008,-2.4289999999999994,-117.3522,31.392199999999992,0,0,1,0,0,0,0
1970-01-01 00:01:55.000,-0.50667331999999998,0.065679919999999989,-0.7615191200000001,13.934199999999999,57.7346,6.3167999999999997,0,0,1,0,0,0,0
1970-01-01 00:01:55.500,-0.67554815999999984,0.056124880000000002,-0.69665171999999997,-11.342800000000002,-82.844999999999985,-0.30659999999999998,0,0,1,0,0,0,0
1970-01-01 00:01:56.000,-0.51439347999999985,0.072199600000000003,-0.79826308000000001,6.4400000000000013,45.467799999999997,4.5976000000000008,0,0,1,0,0,0,0
1970-01-01 00:01:56.500,-0.64221044000000005,0.058584399999999988,-0.7105206799999999,-6.8390000000000013,18.403000000000002,0.10359999999999986,0,0,1,0,0,0,0
1970-01-01 00:01:57.000,-0.47428476000000003,0.057671839999999988,-0.86731751999999995,10.197600000000001,56.669200000000011,-24.519599999999997,0,0,1,0,0,0,0
1970-01-01 00:01:57.500,-0.15758496,-0.12281495999999999,-0.92422320000000013,22.572199999999999,-39.632599999999996,23.386999999999997,0,0,1,0,0,0,0
1970-01-01 00:01:58.000,-0.24285808000000006,0.03237636,-1.0184389199999999,-12.845000000000001,-9.2330000000000041,10.211600000000001,0,0,1,0,0,0,0
1970-01-01 00:01:58.500,-0.32212635999999994,0.01283684,-0.87374204000000011,-17.225599999999996,43.512,-28.553000000000001,0,0,1,0,0,0,0
1970-01-01 00:01:59.000,-0.27885051999999999,-0.036968440000000012,-0.88213076000000012,2.1280000000000006,-93.751000000000005,16.707600000000003,0,0,1,0,0,0,0
1970-01-01 00:01:59.500,-0.45258583999999985,0.083308920000000022,-0.86725408000000004,-3.4720000000000009,43.19700000000001,-3.7491999999999996,0,0,1,0,0,0,0
1970-01-01 00:02:00.000,-0.47352348,0.072970640000000003,-0.78160032000000002,1.2292000000000007,28.562799999999996,13.336400000000001,0,0,1,0,0,0,0
1970-01-01 00:02:00.500,-0.32539351999999999,0.032469080000000004,-0.92453308000000012,-1.0444,-33.531399999999998,2.2330000000000001,0,0,1,0,0,0,0
1970-01-01 00:02:01.000,-0.30596380000000001,-0.030824520000000005,-0.94102503999999998,-26.4054,-19.467000000000002,4.5766000000000018,0,0,1,0,0,0,0
1970-01-01 00:02:01.500,-0.35261903999999999,0.10365607999999998,-0.88987532000000003,14.785400000000003,80.089799999999997,-47.924800000000005,0,0,1,0,0,0,0
1970-01-01 00:02:02.000,-0.29300252000000004,-0.037519880000000005,-0.92408167999999991,5.5958000000000006,9.044000000000004,-1.0737999999999994,0,0,1,0,0,0,0
1970-01-01 00:02:02.500,-0.2877248,-0.030290160000000007,-0.94389936000000008,-0.30519999999999897,-4.4338000000000024,4.5933999999999999,0,0,1,0,0,0,0
1970-01-01 00:02:03.000,-0.31140500000000004,-0.015891720000000005,-0.84619443999999988,-16.644600000000001,-78.976799999999997,13.242599999999999,0,0,1,0,0,0,0
1970-01-01 00:02:03.500,-0.48076540000000001,0.047521439999999998,-0.75720032000000015,1.8298000000000005,-35.956200000000003,19.7834,0,0,1,0,0,0,0
1970-01-01 00:02:04.000,-0.49356563999999997,0.057047199999999999,-0.81353259999999994,9.5703999999999994,23.371600000000008,3.1836000000000002,0,0,1,0,0,0,0
1970-01-01 00:02:04.500,-0.53984268000000002,0.09171716000000002,-0.78806388000000016,-10.658199999999999,-34.388199999999998,17.2942,0,0,1,0,0,0,0
1970-01-01 00:02:05.000,-0.37308331999999994,-0.081017759999999994,-0.82943163999999991,12.888400000000001,47.033000000000008,-23.202200000000001,0,0,1,0,0,0,0
1970-01-01 00:02:05.500,-0.39839588000000004,0.071265079999999995,-0.94168140000000011,3.0562,82.924799999999991,-23.378600000000002,0,0,1,0,0,0,0
1970-01-01 00:02:06.000,-0.16304811999999999,-0.041772800000000006,-0.93801896000000018,-1.2095999999999991,-8.1228000000000016,-7.1357999999999997,0,0,1,0,0,0,0
1970-01-01 00:02:06.500,-0.08641016,-0.14853988000000001,-0.96341936000000006,6.924400000000003,-9.9526000000000003,3.6848000000000014,0,0,1,0,0,0,0
1970-01-01 00:02:07.000,-0.19176936000000006,0.044664200000000001,-0.98114596000000009,4.659200000000002,-40.116999999999997,16.679599999999997,0,0,1,0,0,0,0
1970-01-01 00:02:07.500,-0.61347700000000005,0.071357799999999999,-0.68571808000000001,-28.541799999999999,-22.672999999999991,3.232600000000001,0,0,1,0,0,0,0
1970-01-01 00:02:08.000,-0.4541645199999999,0.039496280000000009,-0.82231659999999995,8.3384,-10.861200000000002,-0.19040000000000021,0,0,1,0,0,0,0
1970-01-01 00:02:08.500,-0.66383859999999995,0.057664520000000011,-0.63757932000000006,8.1395999999999979,-9.6039999999999992,14.84,0,0,1,0,0,0,0
1970-01-01 00:02:09.000,-0.56565299999999996,0.054436400000000003,-0.84399356000000014,-6.8754,95.40440000000001,-40.534200000000006,0,0,1,0,0,0,0
1970-01-01 00:02:09.500,-0.10806027999999999,-0.14274732000000001,-0.97155432000000008,11.894400000000001,-30.643200000000007,10.411799999999998,0,0,1,0,0,0,0
1970-01-01 00:02:10.000,-0.32077703999999996,0.048563320000000021,-1.00183472,2.3562000000000016,-18.1006,18.348400000000002,0,0,1,0,0,0,0
1970-01-01 00:02:10.500,-0.26047000000000003,0.017341079999999998,-0.87480587999999992,-20.365799999999997,52.585400000000007,-38.606400000000001,0,0,1,0,0,0,0
1970-01-01 00:02:11.000,-0.423767,0.053467719999999996,-0.77555644000000001,3.3768000000000002,-127.2782,32.009600000000006,0,0,1,0,0,0,0
1970-01-01 00:02:11.500,-0.65263899999999997,0.069337479999999993,-0.67075112000000015,-1.9753999999999996,-44.941400000000016,10.288599999999999,0,0,1,0,0,0,0
1970-01-01 00:02:12.000,-0.59881748000000001,0.066980439999999988,-0.62342244000000013,0.96459999999999968,56.187599999999996,-3.7687999999999993,0,0,1,0,0,0,0
1970-01-01 00:02:12.500,-0.40858775999999997,0.01346148,-0.95513312000000017,-21.565599999999996,-14.448000000000002,16.268000000000001,0,0,1,0,0,0,0
1970-01-01 00:02:13.000,-0.39726615999999998,0.070925920000000003,-0.90288784000000011,33.585999999999999,107.85179999999998,-28.260399999999994,0,0,1,0,0,0,0
1970-01-01 00:02:13.500,-0.29525220000000002,0.0028328400000000075,-0.95155364000000009,0.35419999999999918,3.7617999999999983,5.4165999999999999,0,0,1,0,0,0,0
1970-01-01 00:02:14.000,-0.24534200000000003,-0.017597279999999976,-0.94647844000000003,1.4742000000000006,-6.6556000000000006,6.5086000000000004,0,0,1,0,0,0,0
1970-01-01 00:02:14.500,-0.25840088,0.0035892399999999961,-0.87391284000000002,-17.012799999999999,-87.323599999999999,-1.5917999999999994,0,0,1,0,0,0,0
1970-01-01 00:02:15.000,-0.64478951999999989,0.08777900000000001,-0.72558279999999997,-5.9808000000000003,-46.01380000000001,6.6331999999999995,0,0,1,0,0,0,0
1970-01-01 00:02:15.500,-0.67437939999999985,0.077423640000000002,-0.69258911999999984,1.7374000000000001,21.533399999999997,-1.8914000000000004,0,0,1,0,0,0,0
1970-01-01 00:02:16.000,-0.68012315999999995,0.07702835999999999,-0.69569036000000006,-2.4108000000000001,-19.622400000000006,5.5510000000000002,0,0,1,0,0,0,0
1970-01-01 00:02:16.500,-0.50826420000000005,0.00098820000000000136,-0.8547173600000002,14.189,12.126800000000001,23.465399999999999,0,0,1,0,0,0,0
1970-01-01 00:02:17.000,-0.42497723999999992,0.071794560000000007,-0.90739696000000014,15.6576,85.801799999999986,-34.343400000000003,0,0,1,0,0,0,0
1970-01-01 00:02:17.500,-0.31312032000000001,-0.039720760000000015,-0.93046471999999991,-8.2110000000000003,9.0790000000000006,-1.9767999999999992,0,0,1,0,0,0,0
1970-01-01 00:02:18.000,-0.30226963999999995,-0.020935199999999998,-0.9482669600000001,6.2789999999999999,-1.0388000000000006,3.0184000000000011,0,0,1,0,0,0,0
1970-01-01 00:02:18.500,-0.26666515999999996,-0.043956599999999992,-0.94425560000000008,-6.1641999999999992,-63.190400000000011,18.492599999999996,0,0,1,0,0,0,0
1970-01-01 00:02:19.000,-0.50366724000000007,0.055061040000000006,-0.79197763999999982,-8.8423999999999996,9.6403999999999979,3.1052000000000004,0,0,1,0,0,0,0
1970-01-01 00:02:19.500,-0.60066699999999995,0.04792892,-0.74528336000000006,-3.7562000000000011,-23.973599999999998,13.319600000000003,0,0,1,0,0,0,0
1970-01-01 00:02:20.000,-0.35338520000000001,0.052247720000000018,-0.91229648000000008,0.18900000000000061,8.4251999999999967,3.4761999999999995,0,0,1,0,0,0,0
1970-01-01 00:02:20.500,-0.40232916000000002,0.055927240000000003,-0.88247724000000005,5.8505999999999991,18.229400000000002,1.3356000000000001,0,0,1,0,0,0,0
1970-01-01 00:02:21.000,-0.40943444000000001,0.062342000000000002,-0.88632511999999997,4.5654000000000003,23.440199999999994,-2.4262000000000001,0,0,1,0,0,0,0
1970-01-01 00:02:21.500,-0.35636931999999999,0.0092719999999999816,-0.9297400400000001,3.6287999999999996,16.3842,-27.4358,0,0,1,0,0,0,0
1970-01-01 00:02:22.000,-0.27754511999999992,-0.06655831999999999,-0.91641276000000005,-3.7744000000000013,-3.9143999999999948,-11.848199999999999,0,0,1,0,0,0,0
1970-01-01 00:02:22.500,-0.18115780000000001,-0.014798600000000004,-0.96882640000000009,-0.081200000000002034,-19.971,5.0903999999999998,0,0,1,0,0,0,0
1970-01-01 00:02:23.000,-0.20716087999999991,-0.045537720000000004,-0.998753,15.702400000000003,-15.918000000000001,20.388199999999998,0,0,1,0,0,0,0
1970-01-01 00:02:23.500,-0.41311396,0.014788840000000008,-0.80191332000000004,-52.627399999999994,-85.385999999999981,-13.642999999999999,0,0,1,0,0,0,0
1970-01-01 00:02:24.000,-0.23294924000000003,-0.041792320000000001,-0.96834816000000001,-2.970800000000001,-4.1411999999999987,2.8069999999999995,0,0,1,0,0,0,0
1970-01-01 00:02:24.500,-0.25480188000000004,-0.0067978400000000064,-0.92930816000000005,2.6347999999999998,0.19460000000000133,20.470800000000001,0,0,1,0,0,0,0
1970-01-01 00:02:25.000,-0.37428136000000012,0.013163800000000002,-0.85546399999999989,-9.240000000000002,-44.905000000000008,-5.8940000000000001,0,0,1,0,0,0,0
1970-01-01 00:02:25.500,-0.44324551999999989,0.035804559999999992,-0.84168288000000002,-2.2245999999999988,-23.405200000000001,9.4836000000000009,0,0,1,0,0,0,0
1970-01-01 00:02:26.000,-0.52264068000000008,0.068110160000000003,-0.79670880000000011,0.9575999999999999,24.291399999999999,-1.8437999999999999,0,0,1,0,0,0,0
1970-01-01 00:02:26.500,-0.49788200000000005,0.042070479999999993,-0.82763580000000003,2.7187999999999999,-40.329799999999999,-1.1718000000000002,0,0,1,0,0,0,0
1970-01-01 00:02:27.000,-0.38144764000000003,-0.0089108799999999995,-0.90836563999999997,-12.1898,-4.4394000000000009,6.8921999999999999,0,0,1,0,0,0,0
1970-01-01 00:02:27.500,-0.39854716000000001,0.032500800000000003,-0.90955880000000011,17.788400000000003,81.181799999999996,-6.6975999999999996,0,0,1,0,0,0,0
1970-01-01 00:02:28.000,-0.25756640000000003,-0.029750919999999993,-0.95681672000000006,-1.3650000000000013,-4.8579999999999997,-10.033799999999999,0,0,1,0,0,0,0
1970-01-01 00:02:28.500,-0.24937776,-0.038403160000000006,-0.93844107999999993,-4.9518000000000031,-10.109399999999999,-15.715,0,0,1,0,0,0,0
1970-01-01 00:02:29.000,-0.24761364,-0.046850440000000014,-0.93553503999999987,4.6829999999999981,0.21139999999999873,19.034400000000002,0,0,1,0,0,0,0
1970-01-01 00:02:29.500,-0.14507508000000002,0.020705840000000003,-1.0174141200000002,-2.6250000000000004,-68.503399999999999,7.6104000000000012,0,0,1,0,0,0,0
1970-01-01 00:02:30.000,-0.52645928000000008,0.015918560000000009,-0.75760780000000016,-19.049799999999998,-14.593599999999997,-11.233600000000001,0,0,1,0,0,0,0
1970-01-01 00:02:30.500,-0.55494383999999997,0.053545800000000005,-0.78937904000000003,-5.8505999999999982,-6.0927999999999995,4.4506000000000006,0,0,1,0,0,0,0
1970-01-01 00:02:31.000,-0.55312603999999999,0.057823119999999999,-0.79898532,10.530799999999999,1.4602000000000031,-5.2668000000000008,0,0,1,0,0,0,0
1970-01-01 00:02:31.500,-0.48083616000000001,0.016796960000000003,-0.8199912800000001,1.0906000000000002,38.528000000000006,2.0915999999999992,0,0,1,0,0,0,0
1970-01-01 00:02:32.000,-0.45502584000000001,0.015874639999999999,-0.84812935999999994,-10.876600000000002,-43.881599999999999,-3.1373999999999995,0,0,1,0,0,0,0
1970-01-01 00:02:32.500,-0.49303128000000002,0.045098520000000003,-0.87847076000000002,31.1206,69.715800000000002,12.391400000000001,0,0,1,0,0,0,0
1970-01-01 00:02:33.000,-0.28963287999999998,-0.048268080000000019,-0.94111043999999988,-11.317600000000001,-5.8071999999999999,-11.380599999999999,0,0,1,0,0,0,0
1970-01-01 00:02:33.500,-0.099883840000000002,-0.1103368,-0.99429756000000002,4.7445999999999993,-3.7688000000000033,-3.0967999999999996,0,0,1,0,0,0,0
1970-01-01 00:02:34.000,-0.42058523999999997,0.034284440000000006,-0.9045323999999999,3.829000000000002,-9.5269999999999939,0.46200000000000047,0,0,1,0,0,0,0
1970-01-01 00:02:34.500,-0.24387800000000007,-0.022186920000000002,-0.89481876000000016,-21.373800000000003,-47.354999999999997,-6.4484000000000004,0,0,1,0,0,0,0
1970-01-01 00:02:35.000,-0.32352204000000001,-0.014930360000000002,-0.93401248000000014,-5.027400000000001,-0.067200000000000842,-4.7950000000000008,0,0,1,0,0,0,0
1970-01-01 00:02:35.500,-0.48500856000000003,0.0227774,-0.80469004,7.1988000000000012,26.962600000000002,5.2933999999999992,0,0,1,0,0,0,0
1970-01-01 00:02:36.000,-0.36317935999999995,-0.0072736400000000005,-0.89986712000000002,0.89880000000000004,7.0616000000000012,5.5020000000000007,0,0,1,0,0,0,0
1970-01-01 00:02:36.500,-0.41253811999999995,0.037985919999999999,-0.92701212,18.225199999999997,23.329600000000006,20.235599999999994,0,0,1,0,0,0,0
1970-01-01 00:02:37.000,-0.33526820000000002,-0.042502360000000003,-0.94531455999999991,0.41440000000000088,-8.3159999999999972,-7.691600000000002,0,0,1,0,0,0,0
1970-01-01 00:02:37.500,-0.090270240000000002,-0.12040424,-0.9719618000000001,6.9075999999999995,-18.485599999999998,10.431399999999998,0,0,1,0,0,0,0
1970-01-01 00:02:38.000,-0.34676059999999997,0.037654079999999993,-0.99232359999999997,-2.0552000000000019,-13.288800000000002,-6.9608000000000008,0,0,1,0,0,0,0
1970-01-01 00:02:38.500,-0.39833488,-0.015489120000000007,-0.83464836000000009,-30.942800000000002,-30.735599999999994,-21.456399999999999,0,0,1,0,0,0,0
1970-01-01 00:02:39.000,-0.46400992000000002,0.01523292,-0.82999040000000013,3.9535999999999998,30.290400000000005,0.95899999999999996,0,0,1,0,0,0,0
1970-01-01 00:02:39.500,-0.55546600000000002,0.015003559999999997,-0.79484463999999988,-5.5817999999999994,-43.866199999999999,9.2497999999999987,0,0,1,0,0,0,0
1970-01-01 00:02:40.000,-0.49379012000000005,0.00952332,-0.79598412000000007,8.2641999999999989,40.724600000000002,3.0589999999999997,0,0,1,0,0,0,0
1970-01-01 00:02:40.500,-0.42797844000000007,0.033842799999999999,-0.92484783999999987,22.989399999999996,36.735999999999997,20.012999999999998,0,0,1,0,0,0,0
1970-01-01 00:02:41.000,-0.12144612,-0.1265994,-0.98479864000000006,20.622000000000003,-42.046199999999999,15.5764,0,0,1,0,0,0,0
1970-01-01 00:02:41.500,-0.30032739999999991,0.031178319999999992,-0.95744624,-15.835400000000002,13.029800000000005,-3.859799999999999,0,0,1,0,0,0,0
1970-01-01 00:02:42.000,-0.34892487999999999,0.0076103600000000191,-0.91289916000000004,-11.745999999999999,29.297800000000002,-22.089200000000002,0,0,1,0,0,0,0
1970-01-01 00:02:42.500,-0.42896176000000003,0.024146240000000003,-0.81731947999999988,-14.964599999999995,-68.91640000000001,19.569200000000002,0,0,1,0,0,0,0
1970-01-01 00:02:43.000,-0.39798107999999999,0.016543199999999997,-0.90476176000000008,6.095600000000001,6.6486000000000001,2.8952,0,0,1,0,0,0,0
1970-01-01 00:02:43.500,-0.42845668000000003,0.022604159999999998,-0.85899711999999995,4.5947999999999993,4.5066000000000024,7.3457999999999997,0,0,1,0,0,0,0
1970-01-01 00:02:44.000,-0.34424252000000005,0.017175159999999998,-0.89903996000000008,-0.65939999999999965,41.763400000000004,-9.3800000000000008,0,0,1,0,0,0,0
1970-01-01 00:02:44.500,-0.33539019999999992,-0.023001879999999995,-0.93739187999999996,-4.0558000000000005,10.415999999999999,-4.9322000000000008,0,0,1,0,0,0,0
1970-01-01 00:02:45.000,-0.28811764000000001,-0.0008344799999999927,-0.95889316000000013,-2.3561999999999999,-2.5032000000000014,-3.6582000000000003,0,0,1,0,0,0,0
1970-01-01 00:02:45.500,-0.25251559999999995,-0.034801720000000015,-0.96045720000000001,-6.498800000000001,-13.689200000000001,-11.813200000000002,0,0,1,0,0,0,0
1970-01-01 00:02:46.000,-0.14198848,-0.013795760000000001,-0.98680431999999996,-10.611999999999998,-47.075000000000003,8.4475999999999996,0,0,1,0,0,0,0
1970-01-01 00:02:46.500,-0.41805984000000002,-0.0031720000000000008,-0.89141496000000009,1.1536000000000006,24.096799999999995,-16.601199999999999,0,0,1,0,0,0,0
1970-01-01 00:02:47.000,-0.35588376000000005,0.011348440000000001,-0.89911315999999986,-2.5606,2.2301999999999982,1.1844000000000003,0,0,1,0,0,0,0
1970-01-01 00:02:47.500,-0.32814340000000003,0.0072907199999999997,-0.91620780000000013,2.0677999999999996,23.885400000000004,0.04480000000000027,0,0,1,0,0,0,0
1970-01-01 00:02:48.000,-0.32877536000000002,0.0092793200000000006,-0.94291604000000007,7.7224000000000004,10.702999999999998,18.248999999999999,0,0,1,0,0,0,0
1970-01-01 00:02:48.500,-0.24077920000000003,-0.019407759999999993,-0.95293711999999997,-1.3468000000000007,-8.8956000000000035,3.1093999999999999,0,0,1,0,0,0,0
1970-01-01 00:02:49.000,-0.095623600000000003,-0.15641375999999999,-0.97407483999999978,11.251800000000001,-25.713799999999992,0.73219999999999852,0,0,1,0,0,0,0
1970-01-01 00:02:49.500,-0.27485135999999999,0.14039272,-0.99191612000000007,-13.861400000000003,-6.7703999999999978,2.2638000000000011,0,0,1,0,0,0,0
1970-01-01 00:02:50.000,-0.47922819999999999,-0.020925439999999993,-0.82837024000000004,-6.7913999999999985,9.1965999999999966,-4.3372000000000011,0,0,1,0,0,0,0
1970-01-01 00:02:50.500,-0.47456780000000004,0.02907504,-0.84036771999999982,-0.80220000000000002,-46.958799999999989,16.797199999999997,0,0,1,0,0,0,0
1970-01-01 00:02:51.000,-0.35900208,0.005687639999999999,-0.91748636000000017,6.1375999999999999,21.819000000000003,-8.531600000000001,0,0,1,0,0,0,0
1970-01-01 00:02:51.500,-0.37876608000000006,0.026866839999999993,-0.93148220000000004,4.1104000000000003,28.288399999999996,5.1380000000000008,0,0,1,0,0,0,0
1970-01-01 00:02:52.000,-0.12021148,-0.14994531999999999,-0.96944615999999995,11.907,-33.2836,-6.2439999999999989,0,0,1,0,0,0,0
1970-01-01 00:02:52.500,-0.35592767999999997,0.093710639999999984,-0.95455239999999986,-9.1364000000000036,12.853399999999995,4.6395999999999988,0,0,1,0,0,0,0
1970-01-01 00:02:53.000,-0.31191739999999996,-0.054787759999999956,-0.92972784000000008,-7.8666000000000009,23.839200000000005,-16.0594,0,0,1,0,0,0,0
1970-01-01 00:02:53.500,-0.37579172,0.045872000000000031,-0.86068316,-10.323600000000001,-61.084799999999987,22.086399999999998,0,0,1,0,0,0,0
1970-01-01 00:02:54.000,-0.38272375999999997,0.031446719999999997,-0.88634463999999991,11.5724,21.694400000000005,2.8727999999999998,0,0,1,0,0,0,0
1970-01-01 00:02:54.500,-0.37364940000000002,0.0085644000000000015,-0.8953702,5.6882000000000019,25.300800000000002,0.10359999999999971,0,0,1,0,0,0,0
1970-01-01 00:02:55.000,-0.36286947999999997,-0.0022179599999999963,-0.92972051999999994,0.5488000000000014,13.3406,-2.7160000000000006,0,0,1,0,0,0,0
1970-01-01 00:02:55.500,-0.14336463999999999,-0.10616195999999999,-0.99767696000000006,0.41859999999999969,-35.593599999999995,9.891,0,0,1,0,0,0,0
1970-01-01 00:02:56.000,-0.34441088000000003,0.06284708,-0.92210040000000015,-1.0472000000000017,20.546400000000002,-20.015800000000002,0,0,1,0,0,0,0
1970-01-01 00:02:56.500,-0.27939219999999998,-0.034679720000000004,-0.93166764000000002,-7.9491999999999994,9.2105999999999995,-18.909800000000001,0,0,1,0,0,0,0
1970-01-01 00:02:57.000,-0.31056564000000003,0.014701000000000004,-0.89766868,-5.9220000000000006,-23.095800000000001,17.477599999999999,0,0,1,0,0,0,0
1970-01-01 00:02:57.500,-0.32516172000000004,-0.012963720000000001,-0.93075507999999996,-5.4670000000000005,-17.282999999999994,-5.1380000000000008,0,0,1,0,0,0,0
1970-01-01 00:02:58.000,-0.29805088000000007,-0.017914479999999997,-0.94699816000000003,5.1589999999999989,11.003999999999998,-3.3263999999999991,0,0,1,0,0,0,0
1970-01-01 00:02:58.500,-0.27169156,-0.012656279999999997,-0.93943172000000008,0.89740000000000009,7.6005999999999991,7.3472,0,0,1,0,0,0,0
1970-01-01 00:02:59.000,-0.14594372,-0.12116795999999999,-0.97494836000000007,3.1863999999999999,-22.2712,13.609400000000001,0,0,1,0,0,0,0
1970-01-01 00:02:59.500,-0.40515955999999997,0.078062919999999994,-0.91473403999999991,-20.050799999999999,-19.595800000000001,-25.285399999999999,0,1,1,0,0,0,0
1970-01-01 00:03:00.000,-0.72376255999999983,0.097761040000000007,-0.65320264000000006,-11.440800000000001,-120.84379999999999,-8.8466000000000005,0,1,0,0,0,0,0
1970-01-01 00:03:00.500,-0.97112732000000013,0.035667919999999992,-0.22862799999999997,7.9253999999999998,-80.27879999999999,-19.426400000000001,0,1,0,0,0,0,0
1970-01-01 00:03:01.000,-1.0024300799999999,-0.0091060800000000008,-0.099905799999999989,0.23660000000000031,3.0548000000000002,-6.4469999999999992,0,1,0,0,0,0,0
1970-01-01 00:03:01.500,-0.99443907999999992,-0.045671920000000005,-0.16017624000000003,-0.17219999999999999,5.0708000000000002,-4.5864000000000003,0,1,0,0,0,0,0
1970-01-01 00:03:02.000,-0.96984875999999987,-0.078353280000000011,-0.23181708000000001,6.1922000000000006,29.212399999999999,-9.8335999999999988,0,1,0,0,0,0,0
1970-01-01 00:03:02.500,-0.74118659999999992,-0.15637227999999997,-0.63169160000000002,-43.020600000000002,134.15779999999998,-37.270800000000001,0,1,0,0,0,0,0
1970-01-01 00:03:03.000,-0.40492287999999993,-0.094637839999999987,-0.89671707999999994,-23.067800000000002,72.550799999999995,-16.424799999999998,0,1,0,0,0,0,0
1970-01-01 00:03:03.500,-0.25988928,-0.076289040000000002,-0.94203519999999996,-9.6894000000000009,15.960000000000001,14.1974,0,1,0,0,0,0,0
1970-01-01 00:03:04.000,-0.24196016000000001,-0.019219879999999998,-0.95486472000000011,-4.4296000000000006,-9.0397999999999996,1.5875999999999999,0,1,0,0,0,0,0
1970-01-01 00:03:04.500,-0.23618956000000002,-0.025017319999999996,-0.95383503999999986,-1.8059999999999996,-1.1899999999999999,0.60760000000000003,0,1,0,0,0,0,0
1970-01-01 00:03:05.000,-0.23444008000000005,-0.020864439999999998,-0.95345439999999992,0.1666,-2.2875999999999999,1.218,0,1,0,0,0,0,0
1970-01-01 00:03:05.500,-0.44677376000000002,-0.034347880000000004,-0.85611060000000005,2.4948000000000001,-136.9102,-7.3121999999999989,0,1,0,0,0,0,0
1970-01-01 00:03:06.000,-0.8549393999999999,-0.050700760000000011,-0.51257812000000014,10.821999999999997,-72.931600000000003,9.3869999999999987,0,1,0,0,0,0,0
1970-01-01 00:03:06.500,-0.86674655999999994,-0.042438919999999998,-0.48392275999999995,-15.818600000000002,72.766400000000004,-6.7718000000000007,0,1,0,0,0,0,0
1970-01-01 00:03:07.000,-0.61038552000000001,-0.030116920000000002,-0.77456579999999997,-2.2008000000000005,84.816200000000009,-2.0846,0,1,0,0,0,0,0
1970-01-01 00:03:07.500,-0.40150688000000001,-0.041672760000000003,-0.89934496000000008,3.6721999999999997,21.821800000000003,2.0720000000000001,0,1,0,0,0,0,0
1970-01-01 00:03:08.000,-0.26838780000000001,-0.060690120000000007,-0.94621979999999994,0.40039999999999998,31.147199999999998,-3.1150000000000002,0,1,0,0,0,0,0
1970-01-01 00:03:08.500,-0.22616360000000005,-0.071057679999999998,-0.94878423999999995,-1.9053999999999995,-7.1120000000000001,5.4334000000000016,0,1,0,0,0,0,0
1970-01-01 00:03:09.000,-0.231434,-0.076835600000000004,-0.95411807999999998,2.1812000000000005,-2.8182,-0.98140000000000016,0,1,0,0,0,0,0
1970-01-01 00:03:09.500,-0.22209612000000001,-0.071391960000000004,-0.95374964000000007,-3.4482000000000004,-0.48860000000000009,0.16939999999999997,0,1,0,0,0,0,0
1970-01-01 00:03:10.000,-0.22381875999999998,-0.049736960000000004,-0.96115503999999996,0.49419999999999986,-23.273600000000002,8.7262000000000004,0,1,0,0,0,0,0
1970-01-01 00:03:10.500,-0.74025452000000003,-0.066956040000000008,-0.58202052000000004,31.487400000000001,-218.93059999999997,24.168200000000002,0,1,0,0,0,0,0
1970-01-01 00:03:11.000,-0.95529903999999999,-0.079217039999999989,-0.29651123999999995,-6.4162000000000008,39.3078,-6.1852,0,1,0,0,0,0,0
1970-01-01 00:03:11.500,-0.79258032,-0.067558720000000003,-0.57852399999999993,-17.2424,93.282000000000011,-4.4534000000000002,0,1,0,0,0,0,0
1970-01-01 00:03:12.000,-0.54037703999999998,-0.076969800000000005,-0.81579691999999993,-6.176800000000001,45.416000000000004,-11.6396,0,1,0,0,0,0,0
1970-01-01 00:03:12.500,-0.34488423999999995,-0.062488399999999993,-0.92415243999999996,-5.0721999999999987,50.349600000000002,-8.054199999999998,0,1,0,0,0,0,0
1970-01-01 00:03:13.000,-0.26681643999999999,-0.062078479999999991,-0.94068588000000009,3.8289999999999993,-4.6844000000000001,7.4046000000000012,0,1,0,0,0,0,0
1970-01-01 00:03:13.500,-0.25207640000000003,-0.079966119999999988,-0.94785948000000009,-4.3708,-3.3446000000000002,-0.26180000000000003,0,1,0,0,0,0,0
1970-01-01 00:03:14.000,-0.24496380000000001,-0.057544960000000006,-0.94925515999999999,-5.5636000000000001,0.54180000000000006,2.3968000000000003,0,1,0,0,0,0,0
1970-01-01 00:03:14.500,-0.37159492,-0.047899639999999993,-0.88559067999999996,6.3195999999999994,-139.41759999999999,13.700399999999997,0,1,0,0,0,0,0
1970-01-01 00:03:15.000,-0.88300915999999996,-0.057976840000000002,-0.45641420000000005,14.417200000000001,-62.087200000000003,12.5944,0,1,0,0,0,0,0
1970-01-01 00:03:15.500,-0.79113339999999999,-0.053936199999999997,-0.59522823999999996,-7.0714000000000006,85.91940000000001,-12.070800000000002,0,1,0,0,0,0,0
1970-01-01 00:03:16.000,-0.56955212,-0.062146799999999995,-0.80425572000000001,-13.316800000000002,56.270200000000003,-15.3132,0,1,0,0,0,0,0
1970-01-01 00:03:16.500,-0.30876247999999995,-0.060172839999999991,-0.92608248000000004,-1.5413999999999992,62.7074,-0.38639999999999991,0,1,0,0,0,0,0
1970-01-01 00:03:17.000,-0.22573416000000002,-0.026598440000000001,-0.95466708,-5.8156000000000008,-33.139400000000002,2.9260000000000006,0,1,0,0,0,0,0
1970-01-01 00:03:17.500,-0.34898100000000004,-0.01402756,-0.87836828,-3.3446000000000002,24.278799999999997,4.8943999999999992,0,1,0,0,0,0,0
1970-01-01 00:03:18.000,-0.74712067999999998,0.027047400000000003,-0.67344488000000013,-19.339600000000001,32.898599999999995,-18.895799999999998,0,1,0,0,0,0,0
1970-01-01 00:03:18.500,-0.62519876000000008,-0.017807119999999999,-0.76638936000000002,-2.8154000000000003,25.001200000000004,-17.455200000000001,0,1,0,0,0,0,0
1970-01-01 00:03:19.000,-0.53505296000000013,-0.027713519999999998,-0.83209856000000004,-1.5483999999999998,19.159000000000002,-8.4223999999999997,0,1,0,0,0,0,0
1970-01-01 00:03:19.500,-0.36140059999999996,-0.093115279999999995,-0.9273903200000001,-10.3978,64.652000000000001,-35.385000000000005,0,1,0,0,0,0,0
1970-01-01 00:03:20.000,-0.21362200000000001,-0.045649959999999996,-0.95570652,-1.1032000000000002,-4.5878000000000005,-0.30660000000000009,0,1,0,0,0,0,0
1970-01-01 00:03:20.500,-0.21029384000000004,-0.058611240000000002,-0.95686307999999998,-6.4316000000000004,-4.1538000000000004,3.5840000000000005,0,1,0,0,0,0,0
1970-01-01 00:03:21.000,-0.21103071999999998,-0.031222240000000002,-0.96252875999999998,-0.87080000000000046,-10.7828,4.6339999999999995,0,1,0,0,0,0,0
1970-01-01 00:03:21.500,-0.71787239999999997,-0.01743136,-0.56353507999999997,-13.533800000000001,-215.2276,9.9652000000000029,0,1,0,0,0,0,0
1970-01-01 00:03:22.000,-0.90932212000000012,0.0035745999999999998,-0.42534079999999996,-4.8356000000000003,23.174199999999999,0.6831999999999997,0,1,0,0,0,0,0
1970-01-01 00:03:22.500,-0.79746519999999999,0.051779239999999997,-0.58793264000000001,-20.181000000000004,89.630799999999994,-11.169199999999998,0,1,0,0,0,0,0
1970-01-01 00:03:23.000,-0.51663096000000008,0.003354999999999999,-0.84787559999999984,17.011400000000002,83.463800000000006,-2.3954,0,1,0,0,0,0,0
1970-01-01 00:03:23.500,-0.28584111999999995,-0.053270080000000004,-0.94182292000000001,7.9505999999999997,23.466799999999999,0.89600000000000013,0,1,0,0,0,0,0
1970-01-01 00:03:24.000,-0.14489940000000001,-0.069622959999999998,-0.96125263999999988,-6.7438000000000002,28.145599999999998,2.0174000000000003,0,1,0,0,0,0,0
1970-01-01 00:03:24.500,-0.18364903999999999,-0.0080373599999999986,-0.9655860799999999,-9.0174000000000003,-36.5246,0.33039999999999992,0,1,0,0,0,0,0
1970-01-01 00:03:25.000,-0.22602208000000001,-0.013886040000000002,-0.95613839999999994,-2.6432000000000007,1.6646000000000001,3.4355999999999991,0,1,0,0,0,0,0
1970-01-01 00:03:25.500,-0.23673124000000001,-0.01563552,-0.96100620000000003,6.9482000000000008,-72.209199999999996,3.6302000000000003,0,1,0,0,0,0,0
1970-01-01 00:03:26.000,-0.85812359999999999,-0.0084667999999999983,-0.47010259999999993,25.173399999999997,-158.31620000000004,29.675800000000002,0,1,0,0,0,0,0
1970-01-01 00:03:26.500,-0.97134935999999994,0.022979919999999997,-0.26956387999999998,-3.4243999999999999,4.2714000000000008,2.7748000000000004,0,1,0,0,0,0,0
1970-01-01 00:03:27.000,-0.83232547999999995,0.023738760000000001,-0.50215932000000008,-21.299600000000002,100.56479999999999,-20.699000000000002,0,1,0,0,0,0,0
1970-01-01 00:03:27.500,-0.67580923999999998,0.0092866399999999988,-0.74276771999999991,-1.0793999999999999,62.825000000000003,4.2069999999999999,0,1,0,0,0,0,0
1970-01-01 00:03:28.000,-0.39412343999999988,-0.038469040000000003,-0.89974268000000013,10.844399999999998,51.605400000000003,-11.650800000000002,0,1,0,0,0,0,0
1970-01-01 00:03:28.500,-0.26978103999999997,-0.075456999999999996,-0.93086243999999996,1.6212,55.108199999999997,1.2445999999999993,0,1,0,0,0,0,0
1970-01-01 00:03:29.000,-0.21539343999999999,-0.036646359999999996,-0.96705007999999992,-12.0778,-43.553999999999995,4.6256000000000004,0,1,0,0,0,0,0
1970-01-01 00:03:29.500,-0.23735587999999999,-0.021137719999999999,-0.95332264,-0.93800000000000017,0.75039999999999996,1.6282000000000003,0,1,0,0,0,0,0
1970-01-01 00:03:30.000,-0.26148260000000001,-0.037363720000000003,-0.95077771999999983,3.2689999999999997,-70.968800000000016,4.4379999999999997,0,1,0,0,0,0,0
1970-01-01 00:03:30.500,-0.79142131999999998,-0.026378839999999997,-0.57697947999999999,1.7892000000000001,-152.73580000000001,10.663799999999998,0,1,0,0,0,0,0
1970-01-01 00:03:31.000,-0.98786572000000006,-0.023070200000000006,-0.23812447999999997,10.366999999999997,-32.193000000000005,0.73919999999999997,0,1,0,0,0,0,0
1970-01-01 00:03:31.500,-0.8995548000000001,-0.025041719999999996,-0.43271448000000007,-18.610199999999999,86.10560000000001,-2.4681999999999995,0,1,0,0,0,0,0
1970-01-01 00:03:32.000,-0.57621820000000001,-0.018095040000000003,-0.78754415999999994,1.8437999999999999,81.242000000000004,-8.238999999999999,0,1,0,0,0,0,0
1970-01-01 00:03:32.500,-0.22004407999999998,-0.025573640000000005,-0.94787168000000011,3.7548000000000004,66.372600000000006,6.4722,0,1,0,0,0,0,0
1970-01-01 00:03:33.000,-0.14459928,-0.053055359999999989,-0.9750288800000001,7.1316000000000006,-46.079599999999999,-1.6799999999999999,0,1,0,0,0,0,0
1970-01-01 00:03:33.500,-0.2276764,-0.04077484,-0.95565528,-8.2908000000000008,-4.7208000000000006,3.3081999999999998,0,1,0,0,0,0,0
1970-01-01 00:03:34.000,-0.24443431999999998,-0.040135560000000001,-0.95710708,6.125,-54.9878,-3.5,0,1,0,0,0,0,0
1970-01-01 00:03:34.500,-0.73413988000000008,-0.043105040000000011,-0.62698971999999997,-2.8042000000000002,-177.29739999999998,27.6066,0,1,0,0,0,0,0
1970-01-01 00:03:35.000,-0.92896655999999989,-0.016164999999999999,-0.36038555999999999,-7.191799999999998,24.420200000000001,-20.2776,0,1,0,0,0,0,0
1970-01-01 00:03:35.500,-0.63072291999999996,-0.028738320000000001,-0.71480044000000009,-0.76299999999999979,50.259999999999998,3.2354000000000003,0,1,0,0,0,0,0
1970-01-01 00:03:36.000,-0.22474352,0.01304668,-0.95662396000000005,0.55859999999999999,-5.5453999999999999,-1.855,0,1,0,0,0,0,0
1970-01-01 00:03:36.500,-0.38803808000000006,0.025529720000000006,-0.89493831999999995,-32.8538,-133.2842,-19.948599999999999,0,1,0,0,0,0,0
1970-01-01 00:03:37.000,-0.87880503999999993,0.13639356000000002,-0.42750020000000005,-72.714600000000004,-54.606999999999999,-23.147600000000001,0,1,0,0,0,0,0
1970-01-01 00:03:37.500,-0.86334031999999994,0.15008439999999998,-0.48558684000000002,6.8823999999999987,21.974399999999996,0.2407999999999999,0,1,0,0,0,0,0
1970-01-01 00:03:38.000,-0.65594032000000002,0.081622880000000009,-0.73094103999999982,14.628599999999999,103.02459999999999,-12.892600000000002,0,1,0,0,0,0,0
1970-01-01 00:03:38.500,-0.32380752000000002,-0.015308560000000001,-0.93080388000000003,18.988199999999999,70.557200000000009,4.4492000000000003,0,1,0,0,0,0,0
1970-01-01 00:03:39.000,-0.22344787999999999,-0.0104432,-0.94610023999999993,2.5382000000000007,11.054400000000001,-14.030800000000001,0,1,0,0,0,0,0
1970-01-01 00:03:39.500,-0.22249384,-0.020903479999999995,-0.96515420000000007,-6.4946000000000019,-12.8772,3.8821999999999997,0,1,0,0,0,0,0
1970-01-01 00:03:40.000,-0.20324711999999998,-0.016074720000000001,-0.96226035999999993,-0.36680000000000007,-8.5106000000000002,2.4135999999999997,0,1,0,0,0,0,0
1970-01-01 00:03:40.500,-0.58542919999999998,-0.027559800000000002,-0.73102643999999983,23.344999999999995,-188.7466,26.243000000000002,0,1,0,0,0,0,0
1970-01-01 00:03:41.000,-0.97497275999999999,-0.094693960000000021,-0.23492564000000002,9.0439999999999987,-72.986199999999997,-19.588800000000003,0,1,0,0,0,0,0
1970-01-01 00:03:41.500,-0.94272571999999999,-0.13326304,-0.29981499999999994,-63.688800000000001,115.22139999999999,-25.443600000000007,0,1,0,0,0,0,0
1970-01-01 00:03:42.000,-0.5340964800000001,-0.045571880000000002,-0.82238736000000012,-26.892599999999998,111.0256,6.1348000000000003,0,1,0,0,0,0,0
1970-01-01 00:03:42.500,-0.22336980000000001,-0.031554079999999998,-0.97235951999999992,14.8246,36.234799999999993,10.831800000000001,0,1,0,0,0,0,0
1970-01-01 00:03:43.000,-0.073465959999999997,-0.064003640000000001,-0.94792779999999999,-5.1113999999999997,-22.642199999999999,8.9068000000000005,0,1,0,0,0,0,0
1970-01-01 00:03:43.500,-0.21897047999999997,-0.033410920000000004,-0.96021075999999994,-11.072600000000001,-18.404400000000003,3.6203999999999996,0,1,0,0,0,0,0
1970-01-01 00:03:44.000,-0.22247920000000004,-0.015913679999999999,-0.95740720000000001,0.42980000000000002,-3.8794,-0.62859999999999994,0,1,0,0,0,0,0
1970-01-01 00:03:44.500,-0.40928804000000002,-0.024424400000000002,-0.87281971999999997,-1.3972,-115.486,4.4995999999999992,0,1,0,0,0,0,0
1970-01-01 00:03:45.000,-0.82960732000000026,-0.009374480000000001,-0.55482672,-8.4307999999999996,-18.468799999999998,-0.82320000000000038,0,1,0,0,0,0,0
1970-01-01 00:03:45.500,-0.77723271999999999,0.01466196,-0.60193335999999997,2.3926000000000003,-5.283599999999999,15.2194,0,1,0,0,0,0,0
1970-01-01 00:03:46.000,-0.53508955999999996,-0.0045847600000000002,-0.82060615999999997,9.7706,106.75700000000001,-16.003399999999999,0,1,0,0,0,0,0
1970-01-01 00:03:46.500,-0.25162499999999999,-0.036363319999999998,-0.95632140000000021,3.5000000000000004,26.392800000000008,-7.9394000000000009,0,1,0,0,0,0,0
1970-01-01 00:03:47.000,-0.057852400000000005,-0.07680875999999999,-0.95416687999999994,-12.598599999999999,8.2837999999999958,14.116200000000001,0,1,0,0,0,0,0
1970-01-01 00:03:47.500,-0.23176827999999999,-0.014237399999999997,-0.96850920000000018,-2.6922000000000001,-29.960000000000001,0.4214,0,1,0,0,0,0,0
1970-01-01 00:03:48.000,-0.22488259999999996,-0.012951519999999999,-0.95604080000000013,-1.1577999999999999,0.0041999999999999416,2.9189999999999992,0,1,0,0,0,0,0
1970-01-01 00:03:48.500,-0.22384315999999996,-0.021925840000000002,-0.95928355999999992,4.0221999999999998,-20.105400000000003,3.4230000000000005,0,1,0,0,0,0,0
1970-01-01 00:03:49.000,-0.65040151999999996,-0.023872960000000002,-0.70487939999999993,-20.336400000000001,-164.45379999999997,-4.984,0,1,0,0,0,0,0
1970-01-01 00:03:49.500,-0.85925331999999999,-0.013861640000000001,-0.51397624000000008,-13.850199999999999,13.526800000000001,-8.4266000000000005,0,1,0,0,0,0,0
1970-01-01 00:03:50.000,-0.56471360000000004,-0.022916479999999999,-0.77576384000000009,8.0975999999999999,19.374600000000001,4.7893999999999997,0,1,0,0,0,0,0
1970-01-01 00:03:50.500,-0.48590891999999997,-0.0052337999999999994,-0.86201783999999992,-7.105427357601002e-17,31.677799999999998,0.28279999999999983,0,1,0,0,0,0,0
1970-01-01 00:03:51.000,-0.30924560000000001,-0.0021960000000000005,-0.93509339999999996,-3.7855999999999996,21.7546,-2.3660000000000001,0,1,0,0,0,0,0
1970-01-01 00:03:51.500,-0.043715039999999997,-0.012451320000000002,-0.98971036000000012,10.444000000000001,53.285400000000003,23.203600000000002,0,1,0,0,0,0,0
1970-01-01 00:03:52.000,-0.19491208000000002,0.0056437200000000022,-0.96018879999999995,-7.6075999999999997,-53.786600000000007,6.9929999999999994,0,1,0,0,0,0,0
1970-01-01 00:03:52.500,-0.21215556000000002,-0.015977120000000001,-0.95942995999999992,2.6319999999999997,-0.99260000000000004,0.42839999999999995,0,1,0,0,0,0,0
1970-01-01 00:03:53.000,-0.20646547999999998,-0.024643999999999999,-0.9593884800000001,-0.41300000000000003,-3.1471999999999998,0.7854000000000001,0,1,0,0,0,0,0
1970-01-01 00:03:53.500,-0.25821056000000003,-0.023946160000000001,-0.95070939999999993,-1.7919999999999998,-68.662999999999997,-0.8637999999999999,0,1,0,0,0,0,0
1970-01-01 00:03:54.000,-0.33604412000000006,0.01559892,-0.90995895999999998,-34.171199999999999,-111.16840000000002,-27.424600000000002,0,1,0,0,0,0,0
1970-01-01 00:03:54.500,-0.83202536000000005,0.0096209199999999998,-0.53214936000000002,-34.0032,-123.3176,-41.627600000000001,0,1,0,0,0,0,0
1970-01-01 00:03:55.000,-0.93648419999999999,-0.04157516,-0.34723395999999995,1.5371999999999997,45.154200000000003,-5.1212,0,1,0,0,0,0,0
1970-01-01 00:03:55.500,-0.84286628000000008,-0.085036439999999991,-0.52962152000000007,21.992599999999996,30.875599999999995,2.7971999999999997,0,1,0,0,0,0,0
1970-01-01 00:03:56.000,-0.78242015999999992,-0.10607411999999999,-0.60739896000000004,-11.478599999999998,33.531399999999998,-4.1173999999999999,0,1,0,0,0,0,0
1970-01-01 00:03:56.500,-0.65884148000000009,-0.10936080000000004,-0.73400080000000001,0.62020000000000008,19.443200000000001,-0.38500000000000012,0,1,0,0,0,0,0
1970-01-01 00:03:57.000,-0.52667644000000013,-0.081210520000000008,-0.82957315999999992,-13.410600000000002,52.557400000000001,-10.435599999999999,0,1,0,0,0,0,0
1970-01-01 00:03:57.500,-0.33898675999999994,-0.090519120000000008,-0.92039972000000003,-9.625,22.976799999999997,-21.407399999999999,0,1,0,0,0,0,0
1970-01-01 00:03:58.000,-0.28220551999999999,-0.044988720000000003,-0.94389203999999993,0.84560000000000013,25.6144,45.990000000000002,0,1,0,0,0,0,0
1970-01-01 00:03:58.500,-0.19877216000000003,-0.047479959999999995,-0.95767315999999991,-0.079799999999999982,-6.686399999999999,-3.8275999999999999,0,1,0,0,0,0,0
1970-01-01 00:03:59.000,-0.22014655999999999,-0.045898839999999996,-0.95568944000000011,-3.6609999999999996,-2.2329999999999997,2.7957999999999998,0,1,0,0,0,0,0
1970-01-01 00:03:59.500,-0.22807411999999999,-0.044000519999999994,-0.9587052800000001,6.5926,-37.119599999999998,5.7554000000000007,0,1,0,0,0,0,0
1970-01-01 00:04:00.000,-0.67441844000000006,-0.0252906,-0.70802456000000003,-10.5406,-98.799400000000006,-3.1906000000000008,0,1,0,0,0,0,0
1970-01-01 00:04:00.500,-0.69692255999999997,-0.029138479999999998,-0.71183584,-1.8927999999999998,5.2149999999999999,9.7957999999999998,0,1,0,0,0,0,0
1970-01-01 00:04:01.000,-0.50181527999999997,-0.063415600000000016,-0.85459779999999996,-3.0953999999999997,82.289199999999994,-16.885400000000001,0,1,0,0,0,0,0
1970-01-01 00:04:01.500,-0.31844684000000001,-0.034892000000000006,-0.93208000000000002,-1.8592,29.9404,8.1074000000000002,0,1,0,0,0,0,0
1970-01-01 00:04:02.000,-0.080798159999999994,-0.0457744,-0.97740788000000012,-3.2662,48.439999999999998,4.1958000000000002,0,1,0,0,0,0,0
1970-01-01 00:04:02.500,-0.18954408,0.016750600000000001,-0.96923875999999975,-4.585,-32.019399999999997,10.163999999999998,0,1,0,0,0,0,0
1970-01-01 00:04:03.000,-0.22294036000000003,-0.0099551999999999991,-0.95964956000000001,-0.84839999999999993,-14.383600000000001,-0.23100000000000001,0,1,0,0,0,0,0
1970-01-01 00:04:03.500,-0.21896803999999995,-0.0073248799999999989,-0.95790251999999998,-0.08539999999999999,-1.6324000000000001,2.1560000000000001,0,1,0,0,0,0,0
1970-01-01 00:04:04.000,-0.45567732,-0.020408159999999998,-0.85061572000000008,-27.731199999999998,-107.93860000000001,-26.882799999999996,0,1,0,0,0,0,0
1970-01-01 00:04:04.500,-0.59775608000000002,-0.0082789199999999952,-0.79456403999999992,14.191799999999995,46.404399999999995,16.013199999999998,0,1,0,0,0,0,0
1970-01-01 00:04:05.000,-0.48059947999999997,-0.012383,-0.86115651999999998,-5.7441999999999993,9.8056000000000001,-13.602399999999998,0,1,0,0,0,0,0
1970-01-01 00:04:05.500,-0.28508472000000001,-0.043622320000000006,-0.9445288799999999,0.0097999999999999858,37.344999999999999,-11.943399999999999,0,1,0,0,0,0,0
1970-01-01 00:04:06.000,-0.14294496000000001,-0.057142359999999996,-0.97327940000000002,8.7360000000000007,56.879199999999997,12.298999999999999,0,1,0,0,0,0,0
1970-01-01 00:04:06.500,-0.003677080000000001,-0.0794464,-0.94419459999999988,-3.7883999999999998,-0.35979999999999934,10.096800000000004,0,1,0,0,0,0,0
1970-01-01 00:04:07.000,-0.16632015999999999,-0.041831359999999991,-0.98564044000000006,-5.3452000000000011,-47.193999999999996,-4.6899999999999995,0,1,0,0,0,0,0
1970-01-01 00:04:07.500,-0.21684524000000002,-0.051127760000000001,-0.95634335999999986,-2.6040000000000005,-3.8289999999999997,3.3936000000000002,0,1,0,0,0,0,0
1970-01-01 00:04:08.000,-0.22448000000000001,-0.043651599999999992,-0.95513800000000015,-2.5927999999999995,-7.4130000000000003,2.2119999999999997,0,1,0,0,0,0,0
1970-01-01 00:04:08.500,-0.54352951999999999,-0.047070039999999994,-0.77308228000000001,8.2249999999999996,-168.62579999999997,8.4559999999999995,0,1,0,0,0,0,0
1970-01-01 00:04:09.000,-0.86342816,-0.036707359999999994,-0.5107700799999999,-9.5886000000000013,16.241399999999999,-2.3828,0,1,0,0,0,0,0
1970-01-01 00:04:09.500,-0.74516868000000003,-0.06053883999999999,-0.64953776000000008,1.6002000000000003,32.636800000000001,-4.3847999999999994,0,1,0,0,0,0,0
1970-01-01 00:04:10.000,-0.58314536000000006,-0.074258959999999999,-0.79261691999999995,-7.4172000000000002,51.819600000000001,-9.4849999999999994,0,1,0,0,0,0,0
1970-01-01 00:04:10.500,-0.33693472000000002,-0.048053359999999996,-0.93009872000000005,-12.054,48.927199999999992,-12.398400000000002,0,1,0,0,0,0,0
1970-01-01 00:04:11.000,-0.062141920000000003,-0.041955799999999994,-0.98251723999999985,1.2067999999999999,47.600000000000001,12.0036,0,1,0,0,0,0,0
1970-01-01 00:04:11.500,-0.16109612000000001,-0.035380000000000002,-0.96021076000000005,-12.112800000000002,-46.552800000000005,7.0363999999999995,0,1,0,0,0,0,0
1970-01-01 00:04:12.000,-0.58813271999999994,0.10144788,-0.78203707999999994,-25.866399999999999,-12.919199999999998,-47.196799999999996,0,1,0,0,0,0,0
1970-01-01 00:04:12.500,-0.53771012000000007,0.059767799999999996,-0.82873624000000023,12.361999999999998,2.8517999999999999,12.254200000000001,0,1,0,0,0,0,0
1970-01-01 00:04:13.000,-0.57219220000000004,0.077687160000000005,-0.80520243999999996,-0.35980000000000006,2.5185999999999997,-0.77419999999999978,0,1,0,0,0,0,0
1970-01-01 00:04:13.500,-0.44380671999999999,0.030275519999999997,-0.88174279999999994,2.8014000000000006,41.762000000000008,-15.019199999999998,0,1,0,0,0,0,0
1970-01-01 00:04:14.000,-0.26683108000000005,0.0046677199999999993,-0.94552195999999999,3.4860000000000002,26.702199999999994,0.39760000000000084,0,1,0,0,0,0,0
1970-01-01 00:04:14.500,-0.15378831999999998,-0.019261359999999995,-0.97595119999999991,3.8597999999999995,55.258000000000003,3.6120000000000001,0,1,0,0,0,0,0
1970-01-01 00:04:15.000,-0.062337119999999996,-0.026325160000000004,-0.96072804000000001,0.80360000000000009,-31.1584,2.6277999999999997,0,1,0,0,0,0,0
1970-01-01 00:04:15.500,-0.20565296,-0.034543080000000004,-0.96439779999999997,-1.4532000000000003,-21.762999999999998,-0.31919999999999998,0,1,0,0,0,0,0
1970-01-01 00:04:16.000,-0.21397823999999996,-0.033018080000000005,-0.95787568000000012,-1.3622000000000001,-3.423,4.5373999999999999,0,1,0,0,0,0,0
1970-01-01 00:04:16.500,-0.39810064000000006,-0.045096080000000004,-0.87957852000000003,0.13439999999999991,-120.001,1.6785999999999999,0,1,0,0,0,0,0
1970-01-01 00:04:17.000,-0.71894844000000002,-0.040757760000000004,-0.69029308,6.3812000000000015,8.0640000000000001,2.5451999999999999,0,1,0,0,0,0,0
1970-01-01 00:04:17.500,-0.59345436000000007,-0.046577160000000006,-0.78932292000000004,0.14139999999999994,43.773800000000001,5.6405999999999992,0,1,0,0,0,0,0
1970-01-01 00:04:18.000,-0.44951143999999998,-0.031610199999999998,-0.88213564,-6.1614000000000013,28.600600000000004,-9.1686000000000014,0,1,0,0,0,0,0
1970-01-01 00:04:18.500,-0.29243155999999998,-0.041575160000000014,-0.93593519999999997,-8.8928000000000011,16.106999999999999,-18.6816,0,1,0,0,0,0,0
1970-01-01 00:04:19.000,-0.24718419999999999,-0.041519040000000007,-0.95109492000000007,4.1804000000000006,20.433,9.8924000000000003,0,1,0,0,0,0,0
1970-01-01 00:04:19.500,-0.069288680000000005,-0.088564680000000007,-0.95894195999999998,9.5283999999999978,53.774000000000008,14.484400000000001,0,1,0,0,0,0,0
1970-01-01 00:04:20.000,-0.083931119999999998,-0.10642792,-0.97073936000000005,4.1930000000000005,-56.578199999999995,-4.1341999999999999,0,1,0,0,0,0,0
1970-01-01 00:04:20.500,-0.21123567999999998,-0.054814599999999991,-0.96226524000000013,-19.130999999999997,-7.4522000000000004,5.0175999999999998,0,1,0,0,0,0,0
1970-01-01 00:04:21.000,-0.21488347999999999,-0.032783840000000002,-0.95769024000000003,-2.6096000000000004,-4.0362,3.2242000000000002,0,1,0,0,0,0,0
1970-01-01 00:04:21.500,-0.3135522,-0.026454479999999999,-0.92293488000000001,-3.9479999999999995,-100.8616,-9.9750000000000014,0,1,0,0,0,0,0
1970-01-01 00:04:22.000,-0.66120584000000004,-0.060846280000000003,-0.77695700000000001,0.62159999999999938,56.814800000000005,-7.3668000000000005,0,1,0,0,0,0,0
1970-01-01 00:04:22.500,-0.37509387999999994,-0.071467599999999992,-0.90790936,-2.1755999999999998,-0.31780000000000014,-5.6601999999999997,0,1,0,0,0,0,0
1970-01-01 00:04:23.000,-0.34922500000000001,-0.049285559999999992,-0.91929439999999985,-2.1238000000000001,25.568199999999997,-4.7362000000000002,0,1,0,0,0,0,0
1970-01-01 00:04:23.500,-0.26573308000000001,-0.081659480000000007,-0.94485583999999989,4.2013999999999996,18.102,4.8482000000000003,0,1,0,0,0,0,0
1970-01-01 00:04:24.000,-0.05776212,-0.092515039999999993,-0.98260508000000002,5.2023999999999999,57.113,0.40039999999999992,0,1,0,0,0,0,0
1970-01-01 00:04:24.500,0.006265919999999996,-0.11321355999999999,-0.94980171999999996,-8.4027999999999992,-42.853999999999999,6.0451999999999995,0,1,0,0,0,0,0
1970-01-01 00:04:25.000,-0.20378636000000003,-0.062825120000000012,-0.97218627999999996,-4.0473999999999997,-23.385599999999997,1.8158000000000001,0,1,0,0,0,0,0
1970-01-01 00:04:25.500,-0.22451416000000005,-0.055705200000000003,-0.95464267999999985,-2.9022000000000001,-5.4740000000000011,4.5808,0,1,0,0,0,0,0
1970-01-01 00:04:26.000,-0.29044540000000002,-0.06051444000000001,-0.93505680000000002,-3.5965999999999996,-84.484400000000008,-11.671800000000001,0,1,0,0,0,0,0
1970-01-01 00:04:26.500,-0.56936423999999997,-0.048409599999999997,-0.80303328000000007,-17.038,11.025,-8.0079999999999991,0,1,0,0,0,0,0
1970-01-01 00:04:27.000,-0.48277839999999989,-0.032854600000000005,-0.85776979999999992,8.7667999999999999,18.947600000000001,16.413599999999999,0,1,0,0,0,0,0
1970-01-01 00:04:27.500,-0.29733351999999996,-0.011733960000000002,-0.93726012000000014,1.9487999999999996,23.515799999999999,11.891599999999999,0,1,0,0,0,0,0
1970-01-01 00:04:28.000,-0.16355564,-0.066838919999999996,-0.98322971999999997,17.389400000000002,33.024599999999992,-7.4759999999999991,0,1,0,0,0,0,0
1970-01-01 00:04:28.500,-0.037297839999999999,-0.077621280000000001,-0.94996275999999991,-10.154199999999999,8.8158000000000012,-2.1924000000000001,0,1,0,0,0,0,0
1970-01-01 00:04:29.000,-0.15474968,-0.049112320000000001,-0.97157384000000002,-12.6602,-53.895800000000008,-2.282,0,1,0,0,0,0,0
1970-01-01 00:04:29.500,-0.22459224000000003,-0.018924640000000003,-0.95812700000000006,-6.9299999999999988,-14.0448,-5.1897999999999991,0,1,0,0,0,0,0
1970-01-01 00:04:30.000,-0.44018331999999999,0.019905519999999999,-0.87967124000000008,-39.39739999999999,-51.6068,-64.446200000000005,0,1,0,0,0,0,0
1970-01-01 00:04:30.500,-0.52095707999999996,0.037319799999999993,-0.83799604000000005,-15.554000000000004,-18.0642,-22.395799999999998,0,1,0,0,0,0,0
1970-01-01 00:04:31.000,-0.56031671999999988,0.034850519999999996,-0.81444515999999989,15.573600000000001,4.2993999999999994,8.8032000000000004,0,1,0,0,0,0,0
1970-01-01 00:04:31.500,-0.49552740000000001,-0.0016762799999999994,-0.85444896000000004,-5.4390000000000001,14.6188,-4.7865999999999982,0,1,0,0,0,0,0
1970-01-01 00:04:32.000,-0.37902472000000004,-0.018168239999999999,-0.90519363999999991,1.1326000000000003,36.075200000000002,-7.835799999999999,0,1,0,0,0,0,0
1970-01-01 00:04:32.500,-0.26337847999999997,-0.048133879999999997,-0.94875251999999999,10.084199999999999,25.491200000000003,-3.927,0,1,0,0,0,0,0
1970-01-01 00:04:33.000,-0.19785716,-0.11054420000000001,-0.95380087999999996,10.7156,15.363599999999998,4.7068000000000003,0,1,0,0,0,0,0
1970-01-01 00:04:33.500,-0.20553584,-0.073534280000000007,-0.95787323999999996,-19.0078,-22.344000000000005,12.541199999999998,0,1,0,0,0,0,0
1970-01-01 00:04:34.000,-0.22479964,-0.036387719999999998,-0.95625308000000009,-2.8140000000000005,0.72659999999999969,1.4447999999999996,0,1,0,0,0,0,0
1970-01-01 00:04:34.500,-0.21858739999999999,-0.029707000000000004,-0.95746332000000012,-0.83719999999999994,0.093800000000000022,2.9287999999999998,0,1,0,0,0,0,0
1970-01-01 00:04:35.000,-0.43570347999999998,-0.010582279999999999,-0.84378372000000013,-28.273000000000003,-123.35679999999998,-13.559000000000001,0,1,0,0,0,0,0
1970-01-01 00:04:35.500,-0.68247044000000001,-0.00219112,-0.73059700000000005,18.834200000000003,-6.7199999999999998,13.410600000000004,0,1,0,0,0,0,0
1970-01-01 00:04:36.000,-0.60230911999999992,-0.054756039999999999,-0.77803303999999995,18.2896,47.58039999999999,2.9736000000000002,0,1,0,0,0,0,0
1970-01-01 00:04:36.500,-0.47689555999999989,-0.055422159999999998,-0.85913376000000019,-4.6648000000000005,38.882199999999997,-12.569199999999999,0,1,0,0,0,0,0
1970-01-01 00:04:37.000,-0.35060603999999995,-0.049427080000000005,-0.92348631999999997,-9.1013999999999999,23.475200000000001,-16.154599999999999,0,1,0,0,0,0,0
1970-01-01 00:04:37.500,-0.20617756000000001,-0.063049599999999997,-0.95982524000000002,-4.5667999999999997,2.4024000000000001,-9.1657999999999991,0,1,0,0,0,0,0
1970-01-01 00:04:38.000,-0.21931695999999998,-0.03251544,-0.95591636000000013,1.0290000000000001,20.789999999999999,28.154,0,1,0,0,0,0,0
1970-01-01 00:04:38.500,-0.15195831999999998,-0.066389959999999998,-0.95987891999999997,3.9955999999999987,-0.60759999999999958,11.452,0,1,0,0,0,0,0
1970-01-01 00:04:39.000,-0.19679576000000001,-0.047865479999999995,-0.96478087999999995,-5.8786000000000005,-19.684000000000005,3.4314,0,1,0,0,0,0,0
1970-01-01 00:04:39.500,-0.24609840000000002,-0.010057680000000003,-0.95305424000000005,-2.9386000000000001,-3.2045999999999997,1.4587999999999999,0,1,0,0,0,0,0
1970-01-01 00:04:40.000,-0.23440348,-0.013532239999999999,-0.95353248000000013,-0.42700000000000005,0.74619999999999986,1.7639999999999998,0,1,0,0,0,0,0
1970-01-01 00:04:40.500,-0.43472748000000005,-0.021757480000000006,-0.85896783999999993,-22.561,-114.1504,-21.134399999999999,0,1,0,0,0,0,0
1970-01-01 00:04:41.000,-0.73757052000000012,0.010775039999999998,-0.66754007999999998,-18.055800000000001,-23.487800000000004,-8.1130000000000013,0,1,0,0,0,0,0
1970-01-01 00:04:41.500,-0.64927180000000007,0.038713040000000004,-0.76226819999999984,19.478200000000001,90.350400000000008,15.950200000000001,0,1,0,0,0,0,0
1970-01-01 00:04:42.000,-0.43362459999999997,0.013266280000000002,-0.89668535999999999,2.0552000000000001,15.5946,5.4264000000000001,0,1,0,0,0,0,0
1970-01-01 00:04:42.500,-0.30690075999999999,0.0081740000000000007,-0.93480304000000003,1.6506000000000001,14.175000000000002,-4.9686000000000003,0,1,0,0,0,0,0
1970-01-01 00:04:43.000,-0.152866,-0.05965800000000001,-0.96619852000000006,13.304199999999998,29.692600000000002,-10.710000000000001,0,1,0,0,0,0,0
1970-01-01 00:04:43.500,-0.23798052000000003,-0.049819920000000011,-0.95776343999999991,-3.766,-11.456200000000001,4.6438000000000006,0,1,0,0,0,0,0
1970-01-01 00:04:44.000,-0.18776775999999998,-0.086500440000000012,-0.96050844000000002,10.845800000000002,-9.0663999999999998,-5.2891999999999992,0,1,0,0,0,0,0
1970-01-01 00:04:44.500,-0.19381896000000004,-0.13301659999999998,-0.94945524000000003,-1.3705999999999998,-0.73499999999999999,1.022,0,1,0,0,0,0,0
1970-01-01 00:04:45.000,-0.21794812,-0.086541920000000022,-0.95408148000000015,-11.3232,-18.722200000000001,8.247399999999999,0,1,0,0,0,0,0
1970-01-01 00:04:45.500,-0.42556527999999993,-0.077228440000000009,-0.87635039999999986,-11.663399999999999,-78.780799999999999,-10.812200000000001,0,1,0,0,0,0,0
1970-01-01 00:04:46.000,-0.49338264000000004,-0.041687399999999999,-0.84958604000000004,13.770400000000002,6.5212000000000003,38.980200000000004,0,1,0,0,0,0,0
1970-01-01 00:04:46.500,-0.35258487999999999,-0.0092939600000000004,-0.91892595999999993,-4.0768000000000004,30.281999999999996,-11.782399999999997,0,1,0,0,0,0,0
1970-01-01 00:04:47.000,-0.22292327999999997,-0.027298720000000002,-0.95929575999999994,5.8673999999999999,18.913999999999998,3.4481999999999999,0,1,0,0,0,0,0
1970-01-01 00:04:47.500,-0.32870948000000005,-0.01232688,-0.90737011999999995,-3.7281999999999997,18.388999999999999,-8.9739999999999984,0,1,0,0,0,0,0
1970-01-01 00:04:48.000,-0.58126900000000004,0.034440600000000002,-0.79868275999999994,9.8364000000000011,-12.864600000000001,9.2358000000000011,0,1,0,0,0,0,0
1970-01-01 00:04:48.500,-0.58339424000000006,0.02085712,-0.80028583999999992,0.050400000000000035,8.3411999999999988,0.9281999999999998,0,1,0,0,0,0,0
1970-01-01 00:04:49.000,-0.44988475999999999,-0.026151919999999999,-0.87833168000000006,-12.2346,56.186199999999999,-25.164999999999996,0,1,0,0,0,0,0
1970-01-01 00:04:49.500,-0.30718624,0.0035526399999999997,-0.93476888000000002,1.8969999999999998,10.1472,7.051800000000001,0,1,0,0,0,0,0
1970-01-01 00:04:50.000,-0.18707723999999998,-0.036822039999999993,-0.96540308000000008,5.2429999999999994,4.3764000000000003,15.6142,0,1,0,0,0,0,0
1970-01-01 00:04:50.500,-0.26852931999999996,-0.0036648800000000006,-0.94837920000000009,5.2262000000000004,12.460000000000001,-8.8928000000000011,0,1,0,0,0,0,0
1970-01-01 00:04:51.000,-0.19093731999999999,-0.070481840000000004,-0.95886388,6.4456000000000007,-8.7471999999999994,-3.1164000000000001,0,1,0,0,0,0,0
1970-01-01 00:04:51.500,-0.20738048000000003,-0.058845479999999999,-0.95700216000000016,-11.542999999999999,-5.4670000000000005,8.6953999999999994,0,1,0,0,0,0,0
1970-01-01 00:04:52.000,-0.21925108000000001,-0.082818479999999986,-0.96492971999999999,0.78819999999999968,-81.3232,9.6823999999999995,0,1,0,0,0,0,0
1970-01-01 00:04:52.500,-0.59810012000000001,0.025917680000000002,-0.80043224000000013,-28.134399999999999,5.6042000000000005,-26.195399999999999,0,1,0,0,0,0,0
1970-01-01 00:04:53.000,-0.44179859999999999,0.017453319999999998,-0.88350447999999981,1.4154,37.491999999999997,2.6362000000000005,0,1,0,0,0,0,0
1970-01-01 00:04:53.500,-0.23782436000000001,-0.019981160000000001,-0.95515995999999992,3.4734000000000003,20.1782,3.3516000000000004,0,1,0,0,0,0,0
1970-01-01 00:04:54.000,-0.23598703999999998,0.013810400000000002,-0.95554304000000001,4.6045999999999996,30.6936,4.7978000000000005,0,1,0,0,0,0,0
1970-01-01 00:04:54.500,-0.23047508,-0.01414956,-0.95810991999999995,-3.1094000000000004,-29.191399999999998,6.7745999999999995,0,1,0,0,0,0,0
1970-01-01 00:04:55.000,-0.22162275999999997,-0.0099283600000000007,-0.95749748000000012,-0.19039999999999999,3.0099999999999998,1.393,0,1,0,0,0,0,0
1970-01-01 00:04:55.500,-0.23699720000000002,-0.038312880000000001,-0.96092812000000005,6.4315999999999995,-84.075599999999994,7.7084000000000001,0,1,0,0,0,0,0
1970-01-01 00:04:56.000,-0.54202892000000003,-0.010919000000000002,-0.82677204000000004,-12.968200000000001,43.031799999999997,-29.852200000000003,0,1,0,0,0,0,0
1970-01-01 00:04:56.500,-0.35144540000000002,-0.037358840000000004,-0.91498535999999997,-0.51939999999999997,31.458000000000002,3.3851999999999998,0,1,0,0,0,0,0
1970-01-01 00:04:57.000,-0.22485088,-0.033579279999999996,-0.95608472000000011,5.0190000000000001,11.646600000000001,7.7741999999999987,0,1,0,0,0,0,0
1970-01-01 00:04:57.500,-0.19999948000000004,-0.0090377600000000023,-0.96461740000000018,6.6150000000000002,3.7323999999999988,1.9963999999999995,0,1,0,0,0,0,0
1970-01-01 00:04:58.000,-0.20094619999999999,-0.043673559999999993,-0.96054015999999987,-3.0967999999999996,-12.156200000000002,0.79099999999999993,0,1,0,0,0,0,0
1970-01-01 00:04:58.500,-0.21831655999999999,-0.035831399999999999,-0.95698264,-2.1840000000000002,-7.7434000000000003,2.3198000000000003,0,1,0,0,0,0,0
1970-01-01 00:04:59.000,-0.63028128000000005,-0.02154764,-0.71220671999999996,-23.7608,-121.0706,-8.3173999999999992,0,1,0,0,0,0,0
1970-01-01 00:04:59.500,-0.49972420000000006,-0.023711920000000001,-0.86811783999999992,-0.63700000000000001,107.02999999999999,2.9666000000000001,0,1,0,0,0,0,0
1970-01-01 00:05:00.000,-0.21528364,-0.05411676,-0.96603259999999991,10.493,38.427199999999999,4.6900000000000013,0,1,0,0,0,0,0
1970-01-01 00:05:00.500,-0.22428480000000001,-0.026859519999999998,-0.95628724000000009,-2.1042000000000005,-4.3022,10.5504,0,1,0,0,0,0,0
1970-01-01 00:05:01.000,-0.18366367999999997,-0.075047080000000002,-0.96072803999999989,-0.56279999999999997,-8.3621999999999996,0.78539999999999988,0,1,0,0,0,0,0
1970-01-01 00:05:01.500,-0.20248339999999998,-0.053631199999999997,-0.95838807999999998,-5.0119999999999996,-5.2808000000000002,4.2265999999999995,0,1,0,0,0,0,0
1970-01-01 00:05:02.000,-0.33461915999999997,-0.043578400000000003,-0.91553679999999982,-5.4123999999999999,-95.317599999999985,2.7258,0,1,0,0,0,0,0
1970-01-01 00:05:02.500,-0.45291524000000005,-0.062754360000000009,-0.87994452000000012,-2.4990000000000006,39.5458,-15.093399999999999,0,1,0,0,0,0,0
1970-01-01 00:05:03.000,-0.36983080000000002,-0.038347039999999999,-0.90913912000000008,-3.6932,15.276799999999998,-3.3754000000000004,0,1,0,0,0,0,0
1970-01-01 00:05:03.500,-0.30036644000000001,-0.0296948,-0.93615723999999989,-1.2614000000000001,19.175799999999999,-4.6591999999999993,0,1,0,0,0,0,0
1970-01-01 00:05:04.000,-0.19821584,-0.044103000000000003,-0.96104524000000002,-2.8560000000000003,-2.3646000000000003,5.8995999999999995,0,1,0,0,0,0,0
1970-01-01 00:05:04.500,-0.36396504000000002,-0.019803040000000004,-0.91769864000000012,-1.4139999999999993,-15.894200000000001,5.1155999999999997,0,1,0,0,0,0,0
1970-01-01 00:05:05.000,-0.23805616000000002,-0.035070120000000003,-0.95222464000000007,-2.2694000000000001,12.469799999999999,-8.6240000000000006,0,1,0,0,0,0,0
1970-01-01 00:05:05.500,-0.16185252000000003,-0.01406172,-0.96990488000000008,-9.9876000000000005,-17.228400000000001,-10.374000000000001,0,1,0,0,0,0,0
1970-01-01 00:05:06.000,-0.63231380000000004,0.038561759999999994,-0.73657011999999977,-49.778400000000005,-99.967000000000013,-60.020800000000001,0,1,0,0,0,0,0
1970-01-01 00:05:06.500,-0.68408572000000012,0.072070279999999987,-0.72624403999999998,-22.190000000000001,6.0074000000000005,-8.218,0,1,0,0,0,0,0
1970-01-01 00:05:07.000,-0.67111712000000001,0.056837360000000003,-0.73304431999999986,9.2708000000000013,10.546200000000001,1.0920000000000001,0,1,0,0,0,0,0
1970-01-01 00:05:07.500,-0.59586508000000005,0.021911200000000002,-0.78999147999999986,-1.4644000000000004,18.911200000000001,-11.767000000000001,0,1,0,0,0,0,0
1970-01-01 00:05:08.000,-0.45838815999999999,-0.016750600000000001,-0.87136791999999996,7.3318000000000003,41.0242,-3.9718,0,1,0,0,0,0,0
1970-01-01 00:05:08.500,-0.30285523999999997,-0.04627216,-0.9353715600000001,1.8395999999999999,24.0366,-6.4581999999999997,0,1,0,0,0,0,0
1970-01-01 00:05:09.000,-0.25442611999999998,-0.031214920000000004,-0.94763012000000002,-2.5480000000000005,15.5974,23.714599999999997,0,1,0,0,0,0,0
1970-01-01 00:05:09.500,-0.20559196000000005,-0.039454800000000005,-0.95945680000000011,3.9325999999999999,-6.4651999999999994,-1.2754000000000001,0,1,0,0,0,0,0
1970-01-01 00:05:10.000,-0.20673875999999999,-0.04875852,-0.95775123999999989,-3.9340000000000002,-2.2455999999999996,3.1569999999999991,0,1,0,0,0,0,0
1970-01-01 00:05:10.500,-0.21573992,-0.034887120000000008,-0.96395127999999997,-1.1704000000000001,-61.121200000000002,6.4022000000000006,0,1,0,0,0,0,0
1970-01-01 00:05:11.000,-0.64715632000000012,-0.045488919999999995,-0.74635452000000002,-11.5402,-37.680999999999997,-16.8462,0,1,0,0,0,0,0
1970-01-01 00:05:11.500,-0.60352423999999993,-0.058350160000000005,-0.78170279999999992,1.3537999999999999,-15.317399999999997,1.8158000000000001,0,1,0,0,0,0,0
1970-01-01 00:05:12.000,-0.57962932,-0.033435320000000004,-0.8016839600000002,4.0222000000000007,37.9848,14.1876,0,1,0,0,0,0,0
1970-01-01 00:05:12.500,-0.38369244000000002,-0.053723919999999994,-0.91104720000000006,-17.1248,48.222999999999992,-29.302,0,1,0,0,0,0,0
1970-01-01 00:05:13.000,-0.25929147999999996,-0.04681140000000001,-0.9464149999999999,-0.15539999999999998,6.2510000000000003,5.7203999999999997,0,1,0,0,0,0,0
1970-01-01 00:05:13.500,-0.16673739999999998,-0.033781800000000001,-0.96643764000000021,-0.53339999999999999,29.4238,3.5350000000000001,0,1,0,0,0,0,0
1970-01-01 00:05:14.000,-0.20081932000000002,-0.022379679999999996,-0.95824167999999987,-0.86659999999999993,-20.686400000000003,16.596999999999998,0,1,0,0,0,0,0
1970-01-01 00:05:14.500,-0.22643932,-0.019622480000000001,-0.95602127999999997,-3.8877999999999999,-6.1040000000000001,2.3758000000000004,0,1,0,0,0,0,0
1970-01-01 00:05:15.000,-0.20814176000000001,-0.01812188,-0.96125996000000002,0.6734,-7.4620000000000006,2.6880000000000002,0,1,0,0,0,0,0
1970-01-01 00:05:15.500,-0.57535444000000002,-0.043568640000000006,-0.77345560000000002,-19.654600000000002,-134.40839999999997,-27.447000000000006,0,1,0,0,0,0,0
1970-01-01 00:05:16.000,-0.6611985199999999,-0.035013999999999997,-0.74567863999999995,3.1206,60.873400000000004,20.1768,0,1,0,0,0,0,0
1970-01-01 00:05:16.500,-0.47270364000000009,-0.024922159999999995,-0.86700276000000021,1.5861999999999998,23.242800000000003,-2.3855999999999997,0,1,0,0,0,0,0
1970-01-01 00:05:17.000,-0.32442971999999998,-0.039867159999999999,-0.93066967999999983,2.6417999999999999,38.869599999999998,-0.68740000000000023,0,1,0,0,0,0,0
1970-01-01 00:05:17.500,-0.23560395999999997,-0.043117240000000008,-0.95379600000000009,-1.9964,20.502999999999997,4.9573999999999998,0,1,0,0,0,0,0
1970-01-01 00:05:18.000,-0.17677312000000001,-0.029526439999999998,-0.95993503999999996,-2.2778,-15.601600000000001,12.268200000000004,0,1,0,0,0,0,0
1970-01-01 00:05:18.500,-0.22476792000000001,-0.022216200000000005,-0.95645071999999987,-0.4200000000000001,-2.7510000000000003,1.4181999999999999,0,1,0,0,0,0,0
1970-01-01 00:05:19.000,-0.21146991999999998,-0.025329639999999997,-0.95974959999999998,1.3832,-6.621999999999999,4.0670000000000002,0,1,0,0,0,0,0
1970-01-01 00:05:19.500,-0.50421136,-0.070708759999999996,-0.82686476000000009,-3.4314000000000004,-97.610799999999998,-5.1953999999999994,0,1,0,0,0,0,0
1970-01-01 00:05:20.000,-0.61667828000000002,-0.045471840000000006,-0.77562964000000012,-0.37799999999999995,10.7226,5.0931999999999995,0,1,0,0,0,0,0
1970-01-01 00:05:20.500,-0.53332788000000009,-0.042473080000000003,-0.82891435999999996,-6.4651999999999994,15.777999999999997,-19.777799999999999,0,1,0,0,0,0,0
1970-01-01 00:05:21.000,-0.38010076000000015,-0.065006480000000005,-0.90297079999999996,0.046199999999999991,46.979799999999997,8.4321999999999999,0,1,0,0,0,0,0
1970-01-01 00:05:21.500,-0.31434520000000005,-0.048011880000000007,-0.93074776000000015,-2.0495999999999999,4.0866000000000007,-8.2502000000000013,0,1,0,0,0,0,0
1970-01-01 00:05:22.000,-0.23704356000000001,-0.07182384,-0.95047028,0.050400000000000028,13.557600000000001,-9.4080000000000013,0,1,0,0,0,0,0
1970-01-01 00:05:22.500,-0.19113984000000003,-0.04990532000000001,-0.96014732000000014,-0.10920000000000059,5.2961999999999989,20.038200000000003,0,1,0,0,0,0,0
1970-01-01 00:05:23.000,-0.19038587999999998,-0.073739239999999998,-0.96041816000000002,0.19179999999999986,-3.4146000000000005,-1.1298000000000001,0,1,0,0,0,0,0
1970-01-01 00:05:23.500,-0.21222631999999997,-0.055370920000000011,-0.95636044000000009,-5.1967999999999996,-6.5114000000000001,2.6683999999999997,0,1,0,0,0,0,0
1970-01-01 00:05:24.000,-0.23356656000000001,-0.0094428000000000012,-0.95307375999999988,-0.86940000000000017,1.5176000000000003,2.4332000000000003,0,1,0,0,0,0,0
1970-01-01 00:05:24.500,-0.41820623999999995,0.0059853199999999997,-0.86192755999999993,-10.206000000000001,-122.02680000000001,-0.98139999999999983,0,1,0,0,0,0,0
1970-01-01 00:05:25.000,-0.69645163999999993,0.031322279999999994,-0.71491267999999986,-42.671999999999997,30.4696,-30.525600000000001,0,1,0,0,0,0,0
1970-01-01 00:05:25.500,-0.68356600000000012,0.070220760000000007,-0.72436767999999985,-7.8091999999999997,-21.991199999999999,-0.94920000000000004,0,1,0,0,0,0,0
1970-01-01 00:05:26.000,-0.67069255999999999,0.067685600000000012,-0.74391940000000001,-2.6320000000000006,-24.994199999999999,2.7902000000000005,0,1,0,0,0,0,0
1970-01-01 00:05:26.500,-0.63477332000000009,0.043136760000000003,-0.74698892000000006,-0.35839999999999977,44.671200000000006,-10.186400000000001,0,1,0,0,0,0,0
1970-01-01 00:05:27.000,-0.53830304000000007,0.03466996,-0.83273052000000003,7.4367999999999999,30.802800000000001,1.3566000000000003,0,1,0,0,0,0,0
1970-01-01 00:05:27.500,-0.26177539999999999,-0.023768040000000001,-0.95026287999999992,8.5847999999999995,45.064599999999999,1.2879999999999998,0,1,0,0,0,0,0
1970-01-01 00:05:28.000,-0.32334148000000001,-0.01207312,-0.9354228,1.2516000000000005,9.0272000000000006,8.3314000000000004,0,1,0,0,0,0,0
1970-01-01 00:05:28.500,-0.22190823999999998,-0.045562120000000005,-0.95776832000000012,8.2978000000000005,-3.6357999999999997,-4.5402000000000005,0,1,0,0,0,0,0
1970-01-01 00:05:29.000,-0.23507935999999996,-0.038876519999999998,-0.94960896000000017,-13.071800000000001,-3.9101999999999997,6.9565999999999981,0,1,0,0,0,0,0
1970-01-01 00:05:29.500,-0.24229199999999998,-0.020735119999999999,-0.95624332000000001,-8.8817841970012525e-18,-66.156999999999996,6.4693999999999994,0,1,0,0,0,0,0
1970-01-01 00:05:30.000,-0.64325231999999999,-0.0013883600000000002,-0.74785999999999997,-15.738800000000001,-82.398399999999995,-3.1933999999999996,0,1,0,0,0,0,0
1970-01-01 00:05:30.500,-0.70250040000000002,0.02106452000000001,-0.73774376000000008,-3.8779999999999988,93.550799999999981,-6.6556000000000006,0,1,0,0,0,0,0
1970-01-01 00:05:31.000,-0.44830608,0.0056144399999999992,-0.87574772000000001,-1.9501999999999997,-0.36819999999999964,0.40460000000000024,0,1,0,0,0,0,0
1970-01-01 00:05:31.500,-0.42785644,0.00026107999999999985,-0.88729868000000001,5.5468000000000011,5.0750000000000002,3.3824000000000001,0,1,0,0,0,0,0
1970-01-01 00:05:32.000,-0.34888828000000005,-0.02114748,-0.91839404000000002,0.44799999999999995,20.136199999999999,-8.4854000000000003,0,1,0,0,0,0,0
1970-01-01 00:05:32.500,-0.27982896000000002,-0.030787919999999996,-0.94299899999999992,3.9928000000000003,14.912799999999999,0.90720000000000023,0,1,0,0,0,0,0
1970-01-01 00:05:33.000,-0.22330635999999998,-0.037346640000000007,-0.9574803999999999,-1.9403999999999999,13.174000000000001,9.9008000000000003,0,1,0,0,0,0,0
1970-01-01 00:05:33.500,-0.20467695999999999,-0.039415760000000001,-0.95939823999999985,3.3908,-8.6659999999999986,-1.1241999999999999,0,1,0,0,0,0,0
1970-01-01 00:05:34.000,-0.20871760000000003,-0.047343320000000001,-0.95721443999999989,-4.1944000000000008,-2.6852,2.52,0,1,0,0,0,0,0
1970-01-01 00:05:34.500,-0.21188472,-0.033152280000000006,-0.96321928000000012,2.7747999999999995,-39.240599999999993,0.84559999999999991,0,1,0,0,0,0,0
1970-01-01 00:05:35.000,-0.66234776000000006,-0.066097160000000002,-0.71601799999999993,4.8439999999999994,-85.544200000000004,2.458400000000001,0,1,0,0,0,0,0
1970-01-01 00:05:35.500,-0.62002840000000004,-0.052172079999999996,-0.77159632000000011,-2.3940000000000001,29.285200000000003,7.2169999999999996,0,1,0,0,0,0,0
1970-01-01 00:05:36.000,-0.51349312000000003,-0.057401000000000001,-0.83955275999999979,-13.423200000000001,27.623399999999997,-13.1572,0,1,0,0,0,0,0
1970-01-01 00:05:36.500,-0.35838475999999991,-0.042580439999999997,-0.9171106,0.52359999999999984,38.260599999999997,-0.12179999999999978,0,1,0,0,0,0,0
1970-01-01 00:05:37.000,-0.27972647999999994,-0.035960719999999995,-0.94378712000000009,-1.8619999999999999,9.8391999999999982,0.1567999999999998,0,1,0,0,0,0,0
1970-01-01 00:05:37.500,-0.23411799999999997,-0.049497839999999994,-0.95269311999999995,2.3058000000000001,18.862200000000001,-4.3987999999999996,0,1,0,0,0,0,0
1970-01-01 00:05:38.000,-0.18582551999999999,-0.053072439999999999,-0.9580171999999999,-4.4828000000000001,-13.6472,10.074400000000001,0,1,0,0,0,0,0
1970-01-01 00:05:38.500,-0.22778376,-0.031131960000000004,-0.95689235999999989,-1.8899999999999999,-2.4668000000000001,0.16520000000000004,0,1,0,0,0,0,0
1970-01-01 00:05:39.000,-0.22661988,-0.036043680000000002,-0.95570407999999996,1.1186,-8.3384,2.5060000000000002,0,1,0,0,0,0,0
1970-01-01 00:05:39.500,-0.51842191999999998,-0.035785039999999997,-0.79860956000000005,-6.6864000000000026,-37.5886,2.625,0,1,0,0,0,0,0
1970-01-01 00:05:40.000,-0.55636879999999989,-0.02711328,-0.80835247999999993,1.7094000000000003,47.865999999999993,0.96879999999999999,0,1,0,0,0,0,0
1970-01-01 00:05:40.500,-0.36503376000000004,-0.0097551200000000008,-0.9142704399999998,5.3423999999999987,18.566800000000001,5.2248000000000001,0,1,0,0,0,0,0
1970-01-01 00:05:41.000,-0.24708903999999998,-0.03278872,-0.95426203999999981,4.1887999999999996,16.121000000000002,2.282,0,1,0,0,0,0,0
1970-01-01 00:05:41.500,-0.19835247999999997,-0.037629679999999999,-0.96124776000000001,-0.65099999999999991,13.9986,3.2018,0,1,0,0,0,0,0
1970-01-01 00:05:42.000,-0.21571308000000003,-0.0112362,-0.95799767999999996,-2.0495999999999999,-0.68320000000000003,-1.1018000000000001,0,1,0,0,0,0,0
1970-01-01 00:05:42.500,-0.38056435999999993,-0.011184959999999996,-0.89905215999999999,-47.990599999999993,-91.918400000000005,-57.895600000000002,0,1,0,0,0,0,0
1970-01-01 00:05:43.000,-0.68371728000000009,0.070120720000000011,-0.71931444,1.4489999999999998,-23.371599999999997,-1.0724,0,1,0,0,0,0,0
1970-01-01 00:05:43.500,-0.66527088000000001,0.041516599999999994,-0.73846112000000008,9.5129999999999999,7.382200000000001,2.9386000000000001,0,1,0,0,0,0,0
1970-01-01 00:05:44.000,-0.61144448000000007,0.0010126000000000004,-0.77878700000000012,6.2734000000000005,11.5052,2.0831999999999997,0,1,0,0,0,0,0
1970-01-01 00:05:44.500,-0.58524619999999994,-0.031163680000000006,-0.79635743999999997,3.0169999999999999,4.8020000000000005,-7.5431999999999997,0,1,0,0,0,0,0
1970-01-01 00:05:45.000,-0.45570659999999996,-0.038544680000000005,-0.87453259999999988,-14.354200000000001,41.068999999999996,-14.5754,0,1,0,0,0,0,0
1970-01-01 00:05:45.500,-0.27052767999999999,-0.052664960000000004,-0.94671756000000007,0.82880000000000009,43.182999999999993,4.2405999999999997,0,1,0,0,0,0,0
1970-01-01 00:05:46.000,-0.22316971999999999,-0.028774920000000002,-0.95523559999999985,4.1524000000000001,8.7205999999999992,12.7624,0,1,0,0,0,0,0
1970-01-01 00:05:46.500,-0.18784339999999999,-0.066904800000000014,-0.96036448000000008,-3.9704000000000002,-10.871000000000002,1.4210000000000003,0,1,0,0,0,0,0
1970-01-01 00:05:47.000,-0.20468672000000002,-0.036948919999999996,-0.95935920000000008,-4.1551999999999998,-2.3380000000000001,4.5569999999999995,0,1,0,0,0,0,0
1970-01-01 00:05:47.500,-0.42941316000000002,-0.051703600000000002,-0.84452059999999984,-11.3904,-158.29519999999999,-3.4328000000000003,0,1,0,0,0,0,0
1970-01-01 00:05:48.000,-0.70292983999999992,-0.031073399999999998,-0.71147959999999999,-6.1361999999999997,42.233800000000002,0.68179999999999974,0,1,0,0,0,0,0
1970-01-01 00:05:48.500,-0.56185392000000001,-0.0078323999999999998,-0.81466232000000005,-0.75040000000000007,38.820599999999999,0.40599999999999986,0,1,0,0,0,0,0
1970-01-01 00:05:49.000,-0.41488052000000003,-0.039852520000000002,-0.89297656000000003,-5.5132000000000003,36.7346,-15.4574,0,1,0,0,0,0,0
1970-01-01 00:05:49.500,-0.26268307999999996,-0.024748920000000001,-0.94998716000000016,0.86939999999999995,28.141400000000004,4.4883999999999995,0,1,0,0,0,0,0
1970-01-01 00:05:50.000,-0.23259056,-0.023343480000000003,-0.95527463999999995,2.1377999999999999,4.006800000000001,21.739200000000004,0,1,0,0,0,0,0
1970-01-01 00:05:50.500,-0.21027188000000002,-0.045518200000000002,-0.9567337600000001,0.43680000000000002,-6.876800000000002,-0.063,0,1,0,0,0,0,0
1970-01-01 00:05:51.000,-0.21790419999999996,-0.040191680000000007,-0.95618232000000003,-2.359,-1.5511999999999997,3.2536,0,1,0,0,0,0,0
1970-01-01 00:05:51.500,-0.22785695999999997,-0.055732039999999997,-0.9557357999999998,2.5312000000000001,-74.526200000000003,20.197800000000001,0,1,0,0,0,0,0
1970-01-01 00:05:52.000,-0.50686852000000004,-0.022177160000000001,-0.84653115999999984,-13.613600000000002,20.500200000000003,-31.547599999999999,0,1,0,0,0,0,0
1970-01-01 00:05:52.500,-0.33906239999999999,-0.051508399999999996,-0.92598975999999988,-2.6124000000000001,37.2834,-22.759799999999998,0,1,0,0,0,0,0
1970-01-01 00:05:53.000,-0.23152916000000001,-0.070657520000000001,-0.95070207999999989,4.9979999999999993,3.7295999999999996,9.0621999999999971,0,1,0,0,0,0,0
1970-01-01 00:05:53.500,-0.23296875999999997,-0.048412040000000003,-0.95204407999999996,-11.157999999999999,6.2649999999999997,14.1974,0,1,0,0,0,0,0
1970-01-01 00:05:54.000,-0.23599923999999997,-0.019236959999999997,-0.95583583999999988,0.9506,-5.6293999999999995,0.94919999999999982,0,1,0,0,0,0,0
1970-01-01 00:05:54.500,-0.22031003999999998,-0.037793160000000006,-0.95581388,0.065799999999999997,-0.15259999999999999,2.6488,0,1,0,0,0,0,0
1970-01-01 00:05:55.000,-0.22303308000000002,-0.029477640000000003,-0.95543080000000002,-1.8115999999999999,-5.0077999999999996,0.59920000000000007,0,1,0,0,0,0,0
1970-01-01 00:05:55.500,-0.25435291999999998,-0.065387120000000007,-0.94732512000000013,1.5203999999999995,-44.136399999999995,-1.8074000000000001,0,1,0,0,0,0,0
1970-01-01 00:05:56.000,-0.35833107999999997,-0.038005440000000008,-0.92165876000000013,-13.893599999999999,28.525000000000006,-25.640999999999998,0,1,0,0,0,0,0
1970-01-01 00:05:56.500,-0.29136039999999996,-0.013622520000000001,-0.9401564,-2.7495999999999996,14.240800000000002,13.546399999999998,0,1,0,0,0,0,0
1970-01-01 00:05:57.000,-0.24062548000000003,0.0074542000000000046,-0.95423764000000022,0.54319999999999991,5.3941999999999997,5.0133999999999999,0,1,0,0,0,0,0
1970-01-01 00:05:57.500,-0.22255240000000001,-0.016513920000000001,-0.95634580000000002,-1.8941999999999999,-2.8741999999999996,0.80920000000000003,0,1,0,0,0,0,0
1970-01-01 00:05:58.000,-0.31797103999999998,-0.016784759999999999,-0.9229788000000001,2.2596000000000003,7.6818000000000008,3.2115999999999998,0,1,0,0,0,0,0
1970-01-01 00:05:58.500,-0.27638368000000002,-0.018744080000000003,-0.94499979999999995,2.9638000000000004,24.764600000000002,-7.0630000000000006,0,1,0,0,0,0,0
1970-01-01 00:05:59.000,-0.24688408000000003,-0.034826120000000002,-0.94914048000000006,1.1816,1.2376,0.441,0,1,0,0,0,0,0
1970-01-01 00:05:59.500,-0.23882231999999998,-0.12663355999999998,-0.93132115999999998,0.32479999999999959,-2.1112000000000002,-8.6673999999999971,0,1,0,0,0,0,1
1970-01-01 00:06:00.000,-0.33580988000000001,-0.31019720000000001,-0.87432032000000004,4.1678000000000006,2.0342000000000007,17.542000000000002,0,0,0,0,0,0,1
1970-01-01 00:06:00.500,-0.34114371999999998,-0.32508119999999996,-0.87234147999999989,2.8420000000000005,-6.8040000000000012,-4.4673999999999987,0,0,0,0,0,0,1
1970-01-01 00:06:01.000,-0.34299812000000002,-0.31627279999999997,-0.85080847999999998,-9.2077999999999989,-7.0084,-9.4233999999999991,0,0,0,0,0,0,1
1970-01-01 00:06:01.500,-0.35937296000000002,-0.35260195999999994,-0.84815375999999987,0.52920000000000011,2.1209999999999996,-11.515000000000002,0,0,0,0,0,0,1
1970-01-01 00:06:02.000,-0.34789276000000002,-0.33712748000000003,-0.83862068000000012,-4.1608000000000001,-2.1069999999999989,-3.2270000000000003,0,0,0,0,0,0,1
1970-01-01 00:06:02.500,-0.36271088000000007,-0.32987579999999994,-0.86618292000000008,6.7661999999999987,-4.5822000000000012,-1.0359999999999991,0,0,0,0,0,0,1
1970-01-01 00:06:03.000,-0.35108916000000001,-0.32757244000000002,-0.86813735999999997,4.1048,-2.3015999999999988,9.287600000000003,0,0,0,0,0,0,1
1970-01-01 00:06:03.500,-0.35007900000000008,-0.27965815999999999,-0.84528920000000018,-12.564999999999998,-11.509400000000001,-12.970999999999998,0,0,0,0,0,0,1
1970-01-01 00:06:04.000,-0.36385767999999991,-0.36427492,-0.84988371999999979,6.518399999999998,7.7028000000000016,-6.4889999999999999,0,0,0,0,0,0,1
1970-01-01 00:06:04.500,-0.35578616000000002,-0.36532655999999997,-0.87980056000000006,9.4122000000000003,5.4908000000000001,16.885400000000004,0,0,0,0,0,0,1
1970-01-01 00:06:05.000,-0.34453044000000005,-0.32566191999999999,-0.86932320000000007,2.7145999999999999,-3.0085999999999999,0.18339999999999976,0,0,0,0,0,0,1
1970-01-01 00:06:05.500,-0.35290207999999995,-0.27052280000000001,-0.85298739999999995,-4.3315999999999999,-12.5328,-3.3921999999999972,0,0,0,0,0,0,1
1970-01-01 00:06:06.000,-0.36137864000000003,-0.38074979999999997,-0.85488083999999998,8.1634000000000011,6.5365999999999982,1.0570000000000015,0,0,0,0,0,0,1
1970-01-01 00:06:06.500,-0.35390736000000006,-0.31912760000000001,-0.86131024000000012,7.2337999999999996,-1.8004000000000002,3.7295999999999987,0,0,0,0,0,0,1
1970-01-01 00:06:07.000,-0.34503307999999999,-0.31162704000000002,-0.85683528000000009,3.8625999999999991,-9.1532,4.6494,0,0,0,0,0,0,1
1970-01-01 00:06:07.500,-0.34020676,-0.30842087999999995,-0.85583244000000003,-2.6880000000000006,-9.8350000000000009,-5.6518000000000015,0,0,0,0,0,0,1
1970-01-01 00:06:08.000,-0.33809127999999994,-0.37164127999999996,-0.83318435999999996,-5.4922000000000013,4.624200000000001,-1.7542000000000031,0,0,0,0,0,0,1
1970-01-01 00:06:08.500,-0.34077772000000001,-0.35015464000000002,-0.86742244000000002,5.7371999999999987,1.1157999999999999,4.8817999999999993,0,0,0,0,0,0,1
1970-01-01 00:06:09.000,-0.33750080000000005,-0.30169868,-0.87457651999999997,-3.0141999999999998,-12.056799999999999,-1.1983999999999997,0,0,0,0,0,0,1
1970-01-01 00:06:09.500,-0.33539264000000002,-0.37829760000000001,-0.84079472000000011,-0.14420000000000016,6.9356000000000009,-5.244399999999998,0,0,0,0,0,0,1
1970-01-01 00:06:10.000,-0.35287767999999997,-0.35797972,-0.89305951999999988,13.4092,3.2662,17.338999999999999,0,0,0,0,0,0,1
1970-01-01 00:06:10.500,-0.32392463999999999,-0.31750988000000002,-0.85548595999999999,-3.245200000000001,-2.8013999999999997,2.4821999999999997,0,0,0,0,0,0,1
1970-01-01 00:06:11.000,-0.31684132000000004,-0.33022471999999992,-0.84828552000000002,-2.653,-8.2403999999999993,-11.325999999999999,0,0,0,0,0,0,1
1970-01-01 00:06:11.500,-0.32695756000000004,-0.34875651999999996,-0.86928415999999997,5.0764000000000005,-0.1848000000000001,-2.9022000000000001,0,0,0,0,0,0,1
1970-01-01 00:06:12.000,-0.30776939999999997,-0.35369508000000005,-0.87222923999999979,0.82180000000000053,0.97860000000000069,9.0510000000000019,0,0,0,0,0,0,1
1970-01-01 00:06:12.500,-0.31779292000000003,-0.31518943999999999,-0.85902640000000008,-0.49419999999999997,-12.906600000000001,-15.925000000000001,0,0,0,0,0,0,1
1970-01-01 00:06:13.000,-0.28251295999999998,-0.33641255999999997,-0.86372584000000008,-4.0655999999999981,3.9479999999999986,-0.65660000000000007,0,0,0,0,0,0,1
1970-01-01 00:06:13.500,-0.33046383999999995,-0.34787323999999997,-0.89116119999999999,-6.7927999999999997,4.2910000000000004,9.6501999999999999,0,0,0,0,0,0,1
1970-01-01 00:06:14.000,-0.32014263999999998,-0.37656275999999989,-0.84261740000000018,8.8396000000000008,-7.4116,-14.674799999999999,0,0,0,0,0,0,1
1970-01-01 00:06:14.500,-0.32890955999999993,-0.35941931999999999,-0.87932231999999999,5.8646000000000003,1.4294,7.0042000000000009,0,0,0,0,0,0,1
1970-01-01 00:06:15.000,-0.31736347999999998,-0.32282908000000005,-0.85264824000000006,-7.5558000000000005,-11.2476,-10.08,0,0,0,0,0,0,1
1970-01-01 00:06:15.500,-0.33057120000000006,-0.39728323999999998,-0.85075235999999999,10.9116,13.798400000000001,8.9908000000000001,0,0,0,0,0,0,1
1970-01-01 00:06:16.000,-0.32853867999999997,-0.32189700000000004,-0.89654872000000008,-1.54,-11.9322,13.953799999999996,0,0,0,0,0,0,1
1970-01-01 00:06:16.500,-0.32097223999999996,-0.40145075999999996,-0.82983667999999999,4.5528000000000004,4.8972000000000007,-12.406799999999999,0,0,0,0,0,0,1
1970-01-01 00:06:17.000,-0.32771639999999996,-0.33430683999999999,-0.88451464000000002,1.815799999999999,-2.0649999999999999,3.6203999999999996,0,0,0,0,0,0,1
1970-01-01 00:06:17.500,-0.31739275999999994,-0.32388316000000006,-0.84766331999999978,-6.6499999999999986,-9.9791999999999987,4.3469999999999995,0,0,0,0,0,0,1
1970-01-01 00:06:18.000,-0.34324943999999996,-0.38136223999999996,-0.84786339999999993,6.4918000000000005,-2.1434000000000006,3.922800000000001,0,0,0,0,0,0,1
1970-01-01 00:06:18.500,-0.35004240000000003,-0.38247732000000001,-0.85141115999999994,1.6506000000000005,-1.8046,-2.0888,0,0,0,0,0,0,1
1970-01-01 00:06:19.000,-0.33723239999999999,-0.36559008000000004,-0.82561548000000007,-7.4661999999999997,0.67339999999999989,-6.2580000000000018,0,0,0,0,0,0,1
1970-01-01 00:06:19.500,-0.34513067999999997,-0.34119252000000005,-0.86080760000000001,2.5143999999999993,-7.2407999999999992,7.2687999999999988,0,0,0,0,0,0,1
1970-01-01 00:06:20.000,-0.34533807999999999,-0.38372171999999999,-0.83256459999999999,0.38640000000000002,-4.3246000000000002,2.0188000000000006,0,0,0,0,0,0,1
1970-01-01 00:06:20.500,-0.35085491999999996,-0.34369840000000002,-0.84652872000000001,-1.2670000000000001,-4.0684000000000005,-0.078400000000000317,0,0,0,0,0,0,1
1970-01-01 00:06:21.000,-0.34543812000000002,-0.36179831999999995,-0.84078984000000001,-3.7940000000000005,-4.9770000000000003,-1.1452000000000009,0,0,0,0,0,0,1
1970-01-01 00:06:21.500,-0.35229208000000001,-0.36582919999999997,-0.83978944000000011,2.4514,-3.6498000000000004,-6.7143999999999995,0,0,0,0,0,0,1
1970-01-01 00:06:22.000,-0.35497608000000008,-0.34726812000000007,-0.85527611999999986,4.0235999999999983,-2.6445999999999992,10.427199999999997,0,0,0,0,0,0,1
1970-01-01 00:06:22.500,-0.35735752000000004,-0.3921982799999999,-0.84157795999999996,1.090599999999998,0.42700000000000016,-0.60759999999999881,0,0,0,0,0,0,1
1970-01-01 00:06:23.000,-0.35266051999999992,-0.37342248,-0.84227580000000002,3.6372000000000004,-0.99679999999999902,0.22679999999999978,0,0,0,0,0,0,1
1970-01-01 00:06:23.500,-0.34673620000000005,-0.35116480000000005,-0.83250847999999988,-6.7101999999999986,-4.2574000000000014,-6.3700000000000001,0,0,0,0,0,0,1
1970-01-01 00:06:24.000,-0.36203256000000006,-0.36651484000000001,-0.82286071999999999,0.27440000000000081,-4.1229999999999993,-12.345200000000002,0,0,0,0,0,0,1
1970-01-01 00:06:24.500,-0.38722800000000002,-0.38089131999999998,-0.8365027599999999,1.971199999999999,-1.8522000000000003,-4.0488,0,0,0,0,0,0,1
1970-01-01 00:06:25.000,-0.35619364000000003,-0.31619959999999997,-0.81498683999999999,-4.1230000000000011,-13.007400000000001,-0.42559999999999976,0,0,0,0,0,0,1
1970-01-01 00:06:25.500,-0.36384059999999996,-0.34628724,-0.85609107999999989,8.6828000000000003,-4.545799999999999,9.8685999999999989,0,0,0,0,0,0,1
1970-01-01 00:06:26.000,-0.37619188000000003,-0.39437963999999992,-0.82815064000000005,0.8287999999999982,6.4455999999999998,-10.505600000000001,0,0,0,0,0,0,1
1970-01-01 00:06:26.500,-0.36475560000000001,-0.37583564000000003,-0.85713295999999994,2.7467999999999999,-5.5118000000000009,2.9217999999999993,0,0,0,0,0,0,1
1970-01-01 00:06:27.000,-0.34966663999999992,-0.33490952000000007,-0.85201872000000012,-0.29679999999999956,-7.4829999999999997,0.68879999999999908,0,0,0,0,0,0,1
1970-01-01 00:06:27.500,-0.34692163999999998,-0.37002600000000002,-0.8408239999999999,3.5489999999999999,-4.7292000000000005,5.3731999999999998,0,0,0,0,0,0,1
