,acc_x,acc_y,acc_z,vel_x,vel_y,vel_z,labelAtaxicGait,labelBradykinesia,labelFreezingOfGait,labelMuscleAtrophy,labelMyopathicGait,labelNoPathologicalGait,labelSittingWithTremor
1970-01-01 00:00:00.000,-0.2565538,-0.12430824,-0.91429972000000004,-7.4984000000000028,20.2944,-39.559799999999996,0,0,1,0,0,0,0
1970-01-01 00:00:00.500,-0.50558263999999997,0.011006839999999993,-0.88193556000000006,-17.050599999999996,6.4147999999999987,-23.263799999999996,0,0,1,0,0,0,0
1970-01-01 00:00:01.000,-0.31949847999999997,-0.037307600000000003,-0.93519588000000009,0.85119999999999996,1.0149999999999999,-1.6212,0,0,1,0,0,0,0
1970-01-01 00:00:01.500,-0.31216628000000002,-0.032698440000000002,-0.93661839999999996,-2.3800000000000003,-0.77980000000000005,1.5245999999999997,0,0,1,0,0,0,0
1970-01-01 00:00:02.000,-0.31109268000000001,-0.028816399999999999,-0.93779692000000014,0.84840000000000004,-1.8746,-0.20720000000000002,0,0,1,0,0,0,0
1970-01-01 00:00:02.500,-0.39276192000000004,-0.028235679999999999,-0.90172151999999994,10.644200000000001,-52.288599999999988,7.6705999999999985,0,0,1,0,0,0,0
1970-01-01 00:00:03.000,-0.58523887999999991,-0.07857776000000001,-0.77812331999999995,-1.5106000000000004,-32.474399999999996,-0.2085999999999997,0,0,1,0,0,0,0
1970-01-01 00:00:03.500,-0.50502144000000004,-0.045276640000000007,-0.84513060000000007,-2.0663999999999998,38.880800000000001,-4.2657999999999996,0,0,1,0,0,0,0
1970-01-01 00:00:04.000,-0.46497616000000003,-0.088364600000000001,-0.91760592000000007,-8.5553999999999988,36.087800000000001,-12.8226,0,0,1,0,0,0,0
1970-01-01 00:00:04.500,-0.4662596,0.039615839999999999,-0.88041300000000011,-5.4613999999999985,3.4201999999999995,-8.4615999999999989,0,0,1,0,0,0,0
1970-01-01 00:00:05.000,-0.33421412000000006,-0.012453760000000001,-0.93125283999999997,-1.0289999999999999,0.99959999999999993,1.0429999999999999,0,0,1,0,0,0,0
1970-01-01 00:00:05.500,-0.31878111999999997,-0.0068149199999999995,-0.93508363999999999,-1.232,1.6926000000000001,-0.35560000000000003,0,0,1,0,0,0,0
1970-01-01 00:00:06.000,-0.30788163999999996,-0.0064586799999999988,-0.93928044000000011,1.6323999999999999,1.204,1.7247999999999999,0,0,1,0,0,0,0
1970-01-01 00:00:06.500,-0.31806619999999997,-0.012956400000000002,-0.93789696000000011,0.42139999999999989,-0.16800000000000007,1.7402000000000002,0,0,1,0,0,0,0
1970-01-01 00:00:07.000,-0.30794751999999997,-0.015245120000000001,-0.93516660000000007,18.7698,-59.542000000000002,-1.4938000000000002,0,0,1,0,0,0,0
1970-01-01 00:00:07.500,-0.56565544000000001,-0.045252239999999999,-0.86062948000000006,-4.9084000000000003,42.659399999999998,14.337400000000002,0,0,1,0,0,0,0
1970-01-01 00:00:08.000,-0.29791911999999998,-0.014883999999999998,-0.94461428000000003,5.1113999999999997,5.3185999999999991,-6.9005999999999998,0,0,1,0,0,0,0
1970-01-01 00:00:08.500,-0.31857128000000001,-0.034028240000000001,-0.93643540000000003,0.70979999999999988,-3.2564000000000006,0.86519999999999997,0,0,1,0,0,0,0
1970-01-01 00:00:09.000,-0.34609936000000002,-0.025951839999999997,-0.92389623999999992,4.6661999999999999,-20.813800000000001,2.1336000000000008,0,0,1,0,0,0,0
1970-01-01 00:00:09.500,-0.31972296000000006,-0.02788676,-0.93563507999999995,-6.7298,18.6858,-2.2063999999999999,0,0,1,0,0,0,0
1970-01-01 00:00:10.000,-0.28209328,-0.012653840000000001,-0.94669315999999981,-0.67199999999999993,8.5890000000000004,0.64820000000000011,0,0,1,0,0,0,0
1970-01-01 00:00:10.500,-0.27428772000000001,-0.011036119999999998,-0.95207580000000003,2.3883999999999999,-17.073,-1.1410000000000002,0,0,1,0,0,0,0
1970-01-01 00:00:11.000,-0.43915363999999996,-0.087935159999999998,-0.93171643999999998,10.382400000000001,-47.164600000000007,10.57,0,0,1,0,0,0,0
1970-01-01 00:00:11.500,-0.51293679999999997,-0.0056998399999999994,-0.77024456000000019,3.3166000000000007,50.019199999999984,-0.39060000000000039,0,0,1,0,0,0,0
1970-01-01 00:00:12.000,-0.31693892000000001,-0.03422588,-0.93508120000000006,-2.0411999999999999,1.1872,-0.54879999999999995,0,0,1,0,0,0,0
1970-01-01 00:00:12.500,-0.30744488000000003,-0.02088396,-0.93922675999999994,-0.01540000000000002,-0.38219999999999998,-1.6856,0,0,1,0,0,0,0
1970-01-01 00:00:13.000,-0.29962712000000002,-0.026015280000000002,-0.94004415999999991,-0.87639999999999996,2.1923999999999997,0.79379999999999995,0,0,1,0,0,0,0
1970-01-01 00:00:13.500,-0.28279599999999994,-0.016818920000000001,-0.94648087999999997,-1.3888,3.1542000000000008,1.8410000000000002,0,0,1,0,0,0,0
1970-01-01 00:00:14.000,-0.32083071999999996,-0.022562679999999998,-0.92679739999999999,10.889199999999999,-85.866199999999992,-1.9432,0,0,1,0,0,0,0
1970-01-01 00:00:14.500,-0.68975383999999995,0.015608680000000002,-0.71632543999999998,-21.249200000000005,-12.853400000000001,3.7057999999999991,0,0,1,0,0,0,0
1970-01-01 00:00:15.000,-0.58350648000000005,0.031622400000000002,-0.80672988000000001,3.4719999999999995,9.7342000000000013,5.2947999999999986,0,0,1,0,0,0,0
1970-01-01 00:00:15.500,-0.67288612000000003,0.020381319999999994,-0.89885208000000005,2.891,52.859799999999993,-16.776200000000003,0,0,1,0,0,0,0
1970-01-01 00:00:16.000,-0.40003067999999997,-0.027615919999999995,-0.9051302,-5.5104000000000006,15.583400000000001,2.2162000000000002,0,0,1,0,0,0,0
1970-01-01 00:00:16.500,-0.30803779999999997,0.0034989599999999997,-0.93999048000000007,-0.24080000000000004,2.8433999999999999,1.2585999999999999,0,0,1,0,0,0,0
1970-01-01 00:00:17.000,-0.28950844000000003,0.0025205200000000005,-0.94443128000000021,-0.63139999999999996,2.6907999999999999,-0.48580000000000001,0,0,1,0,0,0,0
1970-01-01 00:00:17.500,-0.27827956000000004,-0.0019812800000000002,-0.9463296000000001,2.8364000000000003,-1.0598000000000001,-1.7990000000000002,0,0,1,0,0,0,0
1970-01-01 00:00:18.000,-0.36800323999999995,-0.065757999999999997,-0.91811831999999993,0.87779999999999969,-11.389000000000001,-2.5550000000000002,0,0,1,0,0,0,0
1970-01-01 00:00:18.500,-0.20606775999999999,-0.089499200000000001,-1.0088863200000002,-22.2376,22.170400000000001,-24.0352,0,0,1,0,0,0,0
1970-01-01 00:00:19.000,-0.49325819999999992,0.0035355600000000044,-0.86121996000000001,-2.8868,-8.1914000000000016,-8.8843999999999994,0,0,1,0,0,0,0
1970-01-01 00:00:19.500,-0.31248592000000003,-0.027757440000000001,-0.93777496000000005,2.5101999999999998,3.3585999999999996,-0.8862000000000001,0,0,1,0,0,0,0
1970-01-01 00:00:20.000,-0.29863647999999998,-0.028089280000000005,-0.9414715600000001,1.1927999999999999,-3.6918000000000002,-1.2697999999999998,0,0,1,0,0,0,0
1970-01-01 00:00:20.500,-0.30477308000000003,-0.043761399999999992,-0.94292823999999986,4.7291999999999996,-25.293800000000001,4.9783999999999997,0,0,1,0,0,0,0
1970-01-01 00:00:21.000,-0.36371128000000008,-0.034655320000000003,-0.90623307999999991,-5.8240000000000007,30.916200000000003,-9.1602000000000015,0,0,1,0,0,0,0
1970-01-01 00:00:21.500,-0.34685331999999991,-0.052752800000000002,-0.9253626800000001,13.106799999999998,-27.139000000000006,13.428800000000003,0,0,1,0,0,0,0
1970-01-01 00:00:22.000,-0.42840544000000003,-0.08011008,-0.84113631999999994,1.8745999999999996,-10.931199999999999,3.6063999999999994,0,0,1,0,0,0,0
1970-01-01 00:00:22.500,-0.40096764000000001,-0.030358480000000007,-0.90381504000000001,1.9221999999999999,22.923600000000008,-5.5327999999999999,0,0,1,0,0,0,0
1970-01-01 00:00:23.000,-0.38542483999999999,-0.070154880000000003,-0.90704804000000028,0.82599999999999907,-0.39339999999999892,-0.57400000000000007,0,0,1,0,0,0,0
1970-01-01 00:00:23.500,-0.29316356000000005,-0.12573320000000002,-0.88406812000000001,-4.8663999999999996,-9.0958000000000041,15.085000000000001,0,0,1,0,0,0,0
1970-01-01 00:00:24.000,-0.46946087999999997,-0.021008400000000003,-0.78588983999999995,-2.8811999999999984,18.670400000000001,-18.177599999999995,0,0,1,0,0,0,0
1970-01-01 00:00:24.500,-0.31229316000000001,-0.015681879999999999,-0.93832151999999991,0.19039999999999996,1.7598000000000003,0.24359999999999998,0,0,1,0,0,0,0
1970-01-01 00:00:25.000,-0.30133268000000002,-0.01907592,-0.94061512000000003,0.8889999999999999,-1.5428000000000004,-0.17080000000000001,0,0,1,0,0,0,0
1970-01-01 00:00:25.500,-0.37428623999999999,-0.050176160000000004,-0.92431348000000002,31.824799999999996,-63.2254,-1.6603999999999997,0,0,1,0,0,0,0
1970-01-01 00:00:26.000,-0.46186272,-0.073351279999999991,-0.84866127999999985,-26.499200000000002,45.194799999999994,-1.3496000000000001,0,0,1,0,0,0,0
1970-01-01 00:00:26.500,-0.41542464000000001,-0.055322119999999995,-0.87693355999999989,10.434200000000001,12.294799999999995,24.738000000000003,0,0,1,0,0,0,0
1970-01-01 00:00:27.000,-0.32713323999999999,-0.035389759999999999,-0.93149928000000004,-3.3054000000000001,4.5905999999999993,-13.488999999999999,0,0,1,0,0,0,0
1970-01-01 00:00:27.500,-0.32055499999999992,-0.055295279999999988,-0.92570184000000011,5.756800000000001,-5.6797999999999993,-3.1373999999999995,0,0,1,0,0,0,0
1970-01-01 00:00:28.000,-0.31220288000000002,-0.20874688,-0.93066968000000005,-0.86940000000000028,-18.829999999999998,8.1339999999999968,0,0,1,0,0,0,0
1970-01-01 00:00:28.500,-0.59623840000000006,0.040655280000000002,-0.84014811999999994,-19.961200000000002,13.4498,-31.781399999999998,0,0,1,0,0,0,0
1970-01-01 00:00:29.000,-0.31646799999999997,-0.0032842399999999995,-0.93686727999999997,0.20299999999999996,5.2947999999999986,0.32759999999999978,0,0,1,0,0,0,0
1970-01-01 00:00:29.500,-0.29820459999999999,-0.011336239999999997,-0.94194736000000001,2.8111999999999999,-1.7080000000000002,-2.2875999999999999,0,0,1,0,0,0,0
1970-01-01 00:00:30.000,-0.42414275999999995,-0.054453479999999999,-0.88448291999999995,22.884399999999999,-38.816400000000002,9.072000000000001,0,0,1,0,0,0,0
1970-01-01 00:00:30.500,-0.34269800000000006,-0.037885880000000004,-0.92164411999999996,-8.897000000000002,19.207999999999998,4.9279999999999999,0,0,1,0,0,0,0
1970-01-01 00:00:31.000,-0.35632295999999997,-0.050837400000000005,-0.91917484000000005,4.2755999999999998,3.8234000000000004,6.6639999999999997,0,0,1,0,0,0,0
1970-01-01 00:00:31.500,-0.37889783999999999,-0.042990360000000012,-0.90631359999999983,-1.4545999999999992,-10.155599999999998,5.9276,0,0,1,0,0,0,0
1970-01-01 00:00:32.000,-0.40349792000000007,-0.045850040000000009,-0.90825827999999997,-2.3086000000000002,4.2364000000000006,-6.5029999999999992,0,0,1,0,0,0,0
1970-01-01 00:00:32.500,-0.1910886,-0.089677320000000005,-0.98374212000000005,-10.280200000000001,6.0871999999999993,5.1785999999999994,0,0,1,0,0,0,0
1970-01-01 00:00:33.000,-0.55894299999999997,0.022182039999999993,-0.84092892000000008,-3.5223999999999989,-0.99400000000000066,-11.974199999999998,0,0,1,0,0,0,0
1970-01-01 00:00:33.500,-0.32907059999999999,0.00010979999999999982,-0.93293887999999991,2.3912,3.2101999999999999,0.47320000000000007,0,0,1,0,0,0,0
1970-01-01 00:00:34.000,-0.31661196000000003,-0.012475720000000001,-0.93524955999999992,1.5862000000000001,1.0332000000000001,1.1003999999999998,0,0,1,0,0,0,0
1970-01-01 00:00:34.500,-0.39759800000000001,-0.016279679999999998,-0.8659413600000001,-14.218399999999999,-54.341000000000001,-6.3391999999999982,0,0,1,0,0,0,0
1970-01-01 00:00:35.000,-0.46981467999999998,0.012209759999999998,-0.91160839999999999,10.9102,32.982600000000005,-0.42980000000000002,0,0,1,0,0,0,0
1970-01-01 00:00:35.500,-0.31620204000000002,-0.045835399999999998,-0.92108047999999998,12.606999999999998,-10.4398,-5.5888,0,0,1,0,0,0,0
1970-01-01 00:00:36.000,-0.50420648000000001,0.024216999999999999,-0.83122991999999996,-7.6258000000000008,23.302999999999997,-20.423200000000001,0,0,1,0,0,0,0
1970-01-01 00:00:36.500,-0.29599396,-0.028752960000000001,-0.94036624000000002,1.9376,7.8008000000000006,0.72660000000000013,0,0,1,0,0,0,0
1970-01-01 00:00:37.000,-0.27048132000000003,-0.014090999999999998,-0.94954795999999997,-2.0747999999999998,2.1671999999999998,2.2512000000000003,0,0,1,0,0,0,0
1970-01-01 00:00:37.500,-0.28265448000000004,-0.014252040000000001,-0.95088996000000003,4.1314000000000002,-37.983400000000003,2.3268,0,0,1,0,0,0,0
1970-01-01 00:00:38.000,-0.32970500000000003,-0.027435360000000002,-0.92144159999999997,4.6703999999999999,25.229400000000005,-3.8682000000000003,0,0,1,0,0,0,0
1970-01-01 00:00:38.500,-0.31617764000000004,-0.056529920000000004,-0.94050776000000014,8.7527999999999988,3.7450000000000001,6.2355999999999998,0,0,1,0,0,0,0
1970-01-01 00:00:39.000,-0.25898892000000001,-0.012485480000000002,-0.94538043999999999,-4.4631999999999978,-1.8451999999999977,9.2918000000000003,0,0,1,0,0,0,0
1970-01-01 00:00:39.500,-0.28444543999999999,-0.074041799999999991,-0.95318844000000003,-18.758599999999998,-8.4518000000000004,-28.841400000000004,0,0,1,0,0,0,0
1970-01-01 00:00:40.000,-0.44181324000000005,0.042136359999999991,-0.91410696000000002,-2.1784000000000017,1.6701999999999995,-6.5771999999999995,0,0,1,0,0,0,0
1970-01-01 00:00:40.500,-0.29155071999999999,-0.01361276,-0.94024424000000006,-0.34440000000000004,8.8353999999999981,-1.2936000000000001,0,0,1,0,0,0,0
1970-01-01 00:00:41.000,-0.27658864,-0.01231468,-0.9476569600000001,0.65380000000000005,-1.9418,-0.94919999999999982,0,0,1,0,0,0,0
1970-01-01 00:00:41.500,-0.33997739999999999,-0.02559316,-0.92152212000000011,10.599399999999997,-50.136799999999994,3.5965999999999996,0,0,1,0,0,0,0
1970-01-01 00:00:42.000,-0.34257599999999999,-0.0093818000000000009,-0.92371812000000009,-4.0529999999999999,52.166800000000002,10.686199999999999,0,0,1,0,0,0,0
1970-01-01 00:00:42.500,-0.26027968000000007,-0.019573679999999996,-0.9549208400000001,3.8233999999999999,-16.139199999999999,-1.9278,0,0,1,0,0,0,0
1970-01-01 00:00:43.000,-0.39899124000000002,0.010318760000000007,-0.8947943599999999,1.1998,10.005799999999999,21.902999999999999,0,0,1,0,0,0,0
1970-01-01 00:00:43.500,-0.11390652000000001,-0.073653839999999998,-1.0292359200000001,-14.016799999999998,-10.110799999999999,-11.043199999999999,0,0,1,0,0,0,0
1970-01-01 00:00:44.000,-0.54127007999999999,0.042038760000000008,-0.88602256000000001,1.5316000000000003,12.486600000000003,-23.301599999999997,0,0,1,0,0,0,0
1970-01-01 00:00:44.500,-0.27445364,0.0064538000000000017,-0.95065571999999998,0.70140000000000002,1.3118000000000001,-1.5987999999999998,0,0,1,0,0,0,0
1970-01-01 00:00:45.000,-0.25945252000000002,-0.0036844,-0.95222708,2.9876,-2.6151999999999997,-2.6852000000000005,0,0,1,0,0,0,0
1970-01-01 00:00:45.500,-0.28819328,-0.0022814000000000003,-0.94352359999999991,-0.90020000000000011,-20.850199999999994,5.5804,0,0,1,0,0,0,0
1970-01-01 00:00:46.000,-0.33982856,-0.024331679999999998,-0.88460248000000008,0.090999999999999942,-13.6808,2.9638000000000004,0,0,1,0,0,0,0
1970-01-01 00:00:46.500,-0.28464795999999998,-0.0011345999999999999,-0.95641900000000002,2.6012,32.789400000000008,-6.4050000000000011,0,0,1,0,0,0,0
1970-01-01 00:00:47.000,-0.25682463999999999,-0.0036209600000000008,-0.94648576000000006,3.8695999999999997,1.8872,7.2827999999999999,0,0,1,0,0,0,0
1970-01-01 00:00:47.500,-0.42185160000000005,-0.0076469599999999917,-0.9476130399999998,3.6218000000000008,-17.712800000000001,5.2205999999999992,0,0,1,0,0,0,0
1970-01-01 00:00:48.000,-0.28941815999999998,-0.020237359999999999,-0.94743736000000001,-1.7877999999999994,8.1648000000000014,-1.1984000000000001,0,0,1,0,0,0,0
1970-01-01 00:00:48.500,-0.27136215999999996,-0.0092110000000000004,-0.95126816000000003,0.75740000000000007,-0.013999999999999737,-0.73219999999999996,0,0,1,0,0,0,0
1970-01-01 00:00:49.000,-0.31155628000000002,-0.020408159999999998,-0.93598888000000002,1.6477999999999999,-16.001999999999999,-1.0247999999999999,0,0,1,0,0,0,0
1970-01-01 00:00:49.500,-0.40820956000000003,0.0030817200000000018,-0.89605096000000017,-1.8885999999999996,-25.197200000000002,-1.4882,0,0,1,0,0,0,0
1970-01-01 00:00:50.000,-0.42214195999999993,0.035563000000000004,-0.88542231999999998,-0.17920000000000086,22.748599999999996,6.1698000000000013,0,0,1,0,0,0,0
1970-01-01 00:00:50.500,-0.33277940000000006,0.010650599999999996,-0.9550111200000001,-8.3117999999999999,-52.866800000000005,2.1728000000000005,0,0,1,0,0,0,0
1970-01-01 00:00:51.000,-0.38872615999999999,0.016038119999999993,-0.93957812000000007,7.4284000000000026,56.072800000000008,-15.093399999999999,0,0,1,0,0,0,0
1970-01-01 00:00:51.500,-0.27680336000000005,0.0056681199999999996,-0.94920391999999998,-2.9385999999999997,5.3858000000000006,-1.9235999999999998,0,0,1,0,0,0,0
1970-01-01 00:00:52.000,-0.25484092000000003,0.014283760000000001,-0.95769512000000001,3.9592000000000009,-5.8477999999999994,0.38500000000000001,0,0,1,0,0,0,0
1970-01-01 00:00:52.500,-0.39868624000000003,-0.0073053599999999995,-0.90790204000000008,-1.9236000000000004,-8.5764000000000014,-0.30239999999999995,0,0,1,0,0,0,0
1970-01-01 00:00:53.000,-0.26741912000000001,0.00069051999999999948,-0.95623600000000009,2.4864000000000002,7.9996,-0.81340000000000001,0,0,1,0,0,0,0
1970-01-01 00:00:53.500,-0.24846031999999993,-0.0003391600000000055,-0.91332128000000001,0.54179999999999917,6.8698000000000015,10.870999999999999,0,0,1,0,0,0,0
1970-01-01 00:00:54.000,-0.27914820000000001,-0.048131439999999998,-0.94505836000000021,0.050400000000000132,-4.170600000000003,-7.9982000000000006,0,0,1,0,0,0,0
1970-01-01 00:00:54.500,-0.26730199999999998,-0.02791604,-0.95147068000000001,-2.8671999999999995,-1.2431999999999999,0.41020000000000018,0,0,1,0,0,0,0
1970-01-01 00:00:55.000,-0.11906224,-0.076267080000000001,-1.00016332,-2.3996000000000004,1.3607999999999998,-15.9628,0,0,1,0,0,0,0
1970-01-01 00:00:55.500,-0.45546748000000004,0.0010589599999999994,-0.89183952,-3.4174000000000002,-5.0259999999999998,-1.9544000000000004,0,0,1,0,0,0,0
1970-01-01 00:00:56.000,-0.26522556000000003,-0.030316999999999993,-0.95073135999999991,3.3866000000000009,2.1756000000000002,-3.7730000000000001,0,0,1,0,0,0,0
1970-01-01 00:00:56.500,-0.25376243999999998,-0.037739479999999999,-0.95275655999999997,0.15539999999999995,-2.4318000000000004,-0.72799999999999998,0,0,1,0,0,0,0
1970-01-01 00:00:57.000,-0.25568028000000004,-0.035260439999999997,-0.95248083999999988,-0.73919999999999997,-0.10360000000000003,2.4808000000000003,0,0,1,0,0,0,0
1970-01-01 00:00:57.500,-0.32646468000000001,-0.042580440000000011,-0.91286988000000013,8.2711999999999986,-17.331999999999997,7.5725999999999987,0,0,1,0,0,0,0
1970-01-01 00:00:58.000,-0.23321519999999998,-0.025363800000000002,-0.96850188000000004,-5.3633999999999995,5.3451999999999975,2.3925999999999998,0,0,1,0,0,0,0
1970-01-01 00:00:58.500,-0.25523619999999997,-0.016257719999999996,-0.95057032000000008,0.51659999999999995,-1.3314000000000012,8.1479999999999997,0,0,1,0,0,0,0
1970-01-01 00:00:59.000,-0.30460228,0.017082439999999997,-0.95104611999999999,-21.240800000000004,-63.169400000000003,15.146600000000001,0,0,1,0,0,0,0
1970-01-01 00:00:59.500,-0.38451227999999998,-0.0096453200000000093,-0.81281524000000005,10.514000000000001,60.684399999999989,-37.6068,0,0,1,0,0,0,0
1970-01-01 00:01:00.000,-0.30770839999999999,-0.0035136,-0.93941708000000002,-1.1605999999999996,-0.15400000000000011,-2.548,0,0,1,0,0,0,0
1970-01-01 00:01:00.500,-0.28815180000000001,-0.0234118,-0.94367487999999999,3.9367999999999999,3.0800000000000005,0.16240000000000002,0,0,1,0,0,0,0
1970-01-01 00:01:01.000,-0.28287652000000002,-0.029011600000000005,-0.94574400000000014,1.0009999999999999,-1.1424000000000001,-1.0569999999999999,0,0,1,0,0,0,0
1970-01-01 00:01:01.500,-0.27959227999999997,-0.025693200000000003,-0.9462442000000002,-0.37379999999999991,-7.2603999999999997,1.9179999999999999,0,0,1,0,0,0,0
1970-01-01 00:01:02.000,-0.39720759999999994,-0.042807360000000003,-0.8913246800000002,1.4839999999999995,-61.174400000000006,3.9073999999999995,0,0,1,0,0,0,0
1970-01-01 00:01:02.500,-0.49970956,0.046389280000000005,-0.86190316,-2.3114000000000012,30.1434,5.285000000000001,0,0,1,0,0,0,0
1970-01-01 00:01:03.000,-0.56577011999999993,0.047243279999999999,-0.80357984000000005,0.99680000000000091,12.307400000000003,9.0244000000000018,0,0,1,0,0,0,0
1970-01-01 00:01:03.500,-0.28413556000000001,-0.016279679999999998,-0.92741715999999996,14.3696,-28.660800000000005,3.7730000000000001,0,0,1,0,0,0,0
1970-01-01 00:01:04.000,-0.32844351999999993,-0.11765192000000001,-0.95923232000000003,-16.689399999999999,34.221600000000002,-33.611199999999997,0,0,1,0,0,0,0
1970-01-01 00:01:04.500,-0.51673343999999999,0.071187,-0.85524440000000002,-4.7753999999999994,7.7308000000000012,-7.2170000000000014,0,0,1,0,0,0,0
1970-01-01 00:01:05.000,-0.28088304000000003,-0.0068881199999999984,-0.94623932000000011,2.3142,2.2036000000000002,0.83160000000000012,0,0,1,0,0,0,0
1970-01-01 00:01:05.500,-0.27162080000000005,-0.011099560000000001,-0.95084604000000017,1.589,-5.8884000000000007,-1.8535999999999995,0,0,1,0,0,0,0
1970-01-01 00:01:06.000,-0.40621119999999988,-0.023033600000000005,-0.88683996000000009,4.0613999999999999,-10.651200000000001,8.0737999999999985,0,0,1,0,0,0,0
1970-01-01 00:01:06.500,-0.46797248000000002,0.0094720800000000025,-0.87055051999999999,-12.908000000000001,-56.533399999999993,16.679600000000001,0,0,1,0,0,0,0
1970-01-01 00:01:07.000,-0.38398280000000001,0.020105600000000008,-0.8885235600000001,39.370800000000003,12.836599999999999,0.7517999999999998,0,0,1,0,0,0,0
1970-01-01 00:01:07.500,-0.54108464000000001,-0.015708720000000006,-0.82096727999999985,-10.176600000000001,-10.294199999999998,5.301800000000001,0,0,1,0,0,0,0
1970-01-01 00:01:08.000,-0.48466207999999994,-0.022726160000000009,-0.90685772000000009,-13.864199999999997,44.254000000000005,-13.305600000000002,0,0,1,0,0,0,0
1970-01-01 00:01:08.500,-0.34967639999999994,-0.010531040000000002,-0.93081363999999989,1.1507999999999996,8.3229999999999986,-3.2465999999999995,0,0,1,0,0,0,0
1970-01-01 00:01:09.000,-0.29245596000000001,-0.01111176,-0.94369440000000016,-0.40179999999999999,6.6443999999999992,1.7584,0,0,1,0,0,0,0
1970-01-01 00:01:09.500,-0.27144268000000005,-0.0077518800000000001,-0.95445968000000003,4.2153999999999998,-14.202999999999999,0.14279999999999993,0,0,1,0,0,0,0
1970-01-01 00:01:10.000,-0.45930559999999998,-0.0038478800000000014,-0.85732084000000019,-0.79940000000000022,-21.075599999999998,0.86940000000000039,0,0,1,0,0,0,0
1970-01-01 00:01:10.500,-0.41064711999999992,-0.023565519999999993,-0.8956630000000001,1.3061999999999996,22.566599999999998,0.5544,0,0,1,0,0,0,0
1970-01-01 00:01:11.000,-0.39810551999999999,-0.011563159999999999,-0.89158576000000012,4.2111999999999998,-8.9767999999999954,16.707599999999999,0,0,1,0,0,0,0
1970-01-01 00:01:11.500,-0.22129335999999994,-0.072263040000000001,-0.92859323999999999,-14.478800000000001,-45.770200000000003,-27.7438,0,0,1,0,0,0,0
1970-01-01 00:01:12.000,-0.3486149999999999,-0.0026010400000000063,-0.93854844000000004,12.6938,-14.679,-2.2357999999999998,0,0,1,0,0,0,0
1970-01-01 00:01:12.500,-0.33722020000000008,-0.046428320000000002,-0.92503328000000007,-1.9040000000000004,3.3964000000000003,1.7401999999999997,0,0,1,0,0,0,0
1970-01-01 00:01:13.000,-0.27649348000000001,-0.026720440000000005,-0.95401559999999985,-0.40459999999999979,-6.6639999999999997,-7.8778000000000006,0,0,1,0,0,0,0
1970-01-01 00:01:13.500,-0.30387272000000004,-0.024558600000000003,-0.93402711999999999,-1.8381999999999998,13.687799999999999,5.5747999999999989,0,0,1,0,0,0,0
1970-01-01 00:01:14.000,-0.24464171999999998,-0.0043822399999999999,-0.9573218,-2.5633999999999997,3.9872000000000001,0.28000000000000003,0,0,1,0,0,0,0
1970-01-01 00:01:14.500,-0.27479279999999995,-0.052564919999999994,-0.99909948000000015,-7.3402000000000012,-70.954799999999992,8.8157999999999994,0,0,1,0,0,0,0
1970-01-01 00:01:15.000,-0.41433640000000005,-0.017114159999999993,-0.81975459999999989,15.376199999999999,60.362400000000001,-17.350200000000001,0,0,1,0,0,0,0
1970-01-01 00:01:15.500,-0.28639988,-0.0085692799999999986,-0.9459514,4.6368,-15.876000000000001,-3.552713678800501e-17,0,0,1,0,0,0,0
1970-01-01 00:01:16.000,-0.2928,-0.033430439999999999,-0.94812787999999992,6.0074000000000005,-6.1894000000000009,2.9344000000000001,0,0,1,0,0,0,0
1970-01-01 00:01:16.500,-0.40295380000000003,-0.067836880000000002,-0.90315135999999996,-3.8472000000000013,9.7930000000000046,0.91699999999999993,0,0,1,0,0,0,0
1970-01-01 00:01:17.000,-0.26849516000000001,-0.0064757599999999945,-0.90853399999999984,-5.5285999999999991,8.9151999999999987,-0.69440000000000024,0,0,1,0,0,0,0
1970-01-01 00:01:17.500,-0.24086460000000001,-0.010757960000000002,-0.9577853999999999,-1.0486000000000002,2.3464,0.64960000000000007,0,0,1,0,0,0,0
1970-01-01 00:01:18.000,-0.13450988000000003,-0.073702639999999986,-1.02797932,-13.375600000000002,-65.452799999999996,-2.6837999999999997,0,0,1,0,0,0,0
1970-01-01 00:01:18.500,-0.5382932800000001,0.00083936000000000373,-0.87489616000000003,3.0268000000000024,38.967599999999997,-24.747800000000002,0,0,1,0,0,0,0
1970-01-01 00:01:19.000,-0.29862672000000001,-0.030983120000000003,-0.94071759999999993,0.91980000000000006,7.8778000000000006,-1.4812000000000001,0,0,1,0,0,0,0
1970-01-01 00:01:19.500,-0.29143604000000001,-0.024897759999999994,-0.94362608000000003,0.5796,-0.3654,-1.3131999999999999,0,0,1,0,0,0,0
1970-01-01 00:01:20.000,-0.30915288000000002,-0.019578559999999998,-0.90324408,2.1952000000000007,-29.287999999999997,15.691199999999998,0,0,1,0,0,0,0
1970-01-01 00:01:20.500,-0.32446876000000002,0.0087083599999999983,-0.97143232000000002,-1.9852000000000001,30.2288,0.72799999999999965,0,0,1,0,0,0,0
1970-01-01 00:01:21.000,-0.33439712000000005,-0.022389440000000004,-0.93075996000000016,10.572799999999999,-46.718000000000004,8.6603999999999992,0,0,1,0,0,0,0
1970-01-01 00:01:21.500,-0.28794928000000003,-0.068422479999999994,-0.9550403999999999,-22.035999999999998,40.006400000000006,-20.941200000000002,0,0,1,0,0,0,0
1970-01-01 00:01:22.000,-0.47568044000000009,0.056002879999999991,-0.8143158399999999,5.5943999999999994,-1.4825999999999993,-5.1352000000000002,0,0,1,0,0,0,0
1970-01-01 00:01:22.500,-0.27683752,-0.015218279999999999,-0.94785948000000009,0.014000000000000004,0.66920000000000002,-0.18339999999999995,0,0,1,0,0,0,0
1970-01-01 00:01:23.000,-0.28537995999999999,-0.015847800000000002,-0.94822059999999997,-3.444,-38.915799999999997,7.5067999999999993,0,0,1,0,0,0,0
1970-01-01 00:01:23.500,-0.34536735999999996,0.0025424800000000002,-0.93161884000000017,4.8761999999999999,15.780799999999999,5.1100000000000003,0,0,1,0,0,0,0
1970-01-01 00:01:24.000,-0.29842907999999996,-0.015906360000000005,-0.93384412000000017,8.2236000000000011,7.4913999999999996,13.5296,0,0,1,0,0,0,0
1970-01-01 00:01:24.500,-0.33475824000000004,-0.033835480000000001,-0.91974092000000018,1.0164000000000002,-76.8446,12.726000000000001,0,0,1,0,0,0,0
1970-01-01 00:01:25.000,-0.41370444000000001,-0.024126720000000011,-0.84964460000000019,-11.047400000000003,78.896999999999991,-37.659999999999997,0,0,1,0,0,0,0
1970-01-01 00:01:25.500,-0.29439088000000002,-0.016570039999999998,-0.94256711999999998,0.86799999999999999,1.5792000000000002,-1.8437999999999999,0,0,1,0,0,0,0
1970-01-01 00:01:26.000,-0.27807704,-0.013629840000000002,-0.94776676000000004,0.27579999999999999,-2.8042000000000002,-0.16240000000000002,0,0,1,0,0,0,0
1970-01-01 00:01:26.500,-0.40118724,-0.041489759999999994,-0.89521403999999993,3.3977999999999997,-49.692999999999991,10.460799999999999,0,0,1,0,0,0,0
1970-01-01 00:01:27.000,-0.40330516000000005,0.026427639999999992,-0.88935804000000007,4.1762000000000006,44.857400000000005,17.708600000000001,0,0,1,0,0,0,0
1970-01-01 00:01:27.500,-0.31309591999999997,-0.003591680000000002,-0.93331464000000008,-0.20720000000000025,4.5136000000000003,-5.7470000000000008,0,0,1,0,0,0,0
1970-01-01 00:01:28.000,-0.22889883999999999,-0.044717880000000002,-0.93359280000000011,-11.9602,-10.7478,-22.275400000000001,0,0,1,0,0,0,0
1970-01-01 00:01:28.500,-0.43893159999999992,0.014283760000000001,-0.93425647999999983,-0.39900000000000074,6.1796000000000042,-2.8294000000000001,0,0,1,0,0,0,0
1970-01-01 00:01:29.000,-0.28798831999999996,0.0052947999999999997,-0.94692983999999991,1.7401999999999997,-2.3113999999999999,0.52079999999999993,0,0,1,0,0,0,0
1970-01-01 00:01:29.500,-0.39362812000000003,-0.02826008,-0.92964243999999996,9.6039999999999992,-27.777400000000004,4.2741999999999987,0,0,1,0,0,0,0
1970-01-01 00:01:30.000,-0.33003439999999989,-0.050900840000000003,-0.91875759999999984,13.306999999999999,-26.866,5.6462000000000003,0,0,1,0,0,0,0
1970-01-01 00:01:30.500,-0.33603191999999998,-0.050612919999999999,-0.91939443999999992,1.0766000000000009,-6.6849999999999987,5.3689999999999998,0,0,1,0,0,0,0
1970-01-01 00:01:31.000,-0.41037871999999997,-0.087122639999999973,-0.92794907999999987,-14.209999999999997,2.1657999999999977,-24.952199999999998,0,0,1,0,0,0,0
1970-01-01 00:01:31.500,-0.35734532000000002,-0.00091987999999999695,-0.91315780000000002,-3.6875999999999998,12.396999999999998,-1.1843999999999999,0,0,1,0,0,0,0
1970-01-01 00:01:32.000,-0.30054943999999995,-0.030453640000000001,-0.9402027599999998,0.98280000000000012,-0.35000000000000009,-1.4742000000000002,0,0,1,0,0,0,0
1970-01-01 00:01:32.500,-0.36945504000000001,-0.046472240000000005,-0.90941972000000004,3.0772000000000008,-6.8712000000000009,8.9054000000000002,0,0,1,0,0,0,0
1970-01-01 00:01:33.000,-0.34441331999999997,-0.037866360000000009,-0.92577748000000004,11.844000000000001,-20.635999999999999,5.9821999999999989,0,0,1,0,0,0,0
1970-01-01 00:01:33.500,-0.42176131999999994,-0.075059280000000006,-0.87204868000000002,-3.5937999999999994,6.5394000000000005,-4.2784000000000004,0,0,1,0,0,0,0
1970-01-01 00:01:34.000,-0.38687419999999989,-0.060841400000000004,-0.89958652000000017,10.4132,-15.660399999999999,11.653599999999999,0,0,1,0,0,0,0
1970-01-01 00:01:34.500,-0.41921639999999999,-0.058237919999999992,-0.88254312000000001,-18.740399999999998,-30.566199999999998,-14.7294,0,0,1,0,0,0,0
1970-01-01 00:01:35.000,-0.23974219999999999,-0.058093959999999993,-1.00460412,-16.905000000000001,55.066199999999988,-18.164999999999999,0,0,1,0,0,0,0
1970-01-01 00:01:35.500,-0.59614568000000001,0.031419880000000011,-0.83855235999999989,-6.9244000000000003,1.5946000000000016,-4.5752000000000006,0,0,1,0,0,0,0
1970-01-01 00:01:36.000,-0.29624528,0.0043798000000000005,-0.94112995999999982,4.0194000000000001,1.54,-0.38359999999999983,0,0,1,0,0,0,0
1970-01-01 00:01:36.500,-0.42260555999999999,-0.057547399999999999,-0.88292375999999995,16.284800000000001,-37.648800000000001,1.1591999999999991,0,0,1,0,0,0,0
1970-01-01 00:01:37.000,-0.42899836000000008,-0.028962799999999997,-0.88756952000000022,-9.5746000000000002,20.078800000000001,-0.98560000000000003,0,0,1,0,0,0,0
1970-01-01 00:01:37.500,-0.37043104000000004,-0.032991239999999998,-0.90937092000000008,-4.2616000000000005,8.7052000000000014,-1.1115999999999999,0,0,1,0,0,0,0
1970-01-01 00:01:38.000,-0.33827671999999998,-0.030885519999999996,-0.92103656000000012,5.7455999999999996,-2.6488000000000005,-0.72380000000000011,0,0,1,0,0,0,0
1970-01-01 00:01:38.500,-0.28026327999999995,-0.082684279999999999,-0.99373635999999987,-4.5415999999999999,-20.284600000000001,3.6567999999999996,0,0,1,0,0,0,0
1970-01-01 00:01:39.000,-0.49727443999999998,0.014552160000000003,-0.84373248000000001,-3.520999999999999,22.4756,-9.0482000000000014,0,0,1,0,0,0,0
1970-01-01 00:01:39.500,-0.30350672000000001,-0.0028474800000000008,-0.9401954400000001,0.36680000000000007,0.47179999999999994,0.77420000000000011,0,0,1,0,0,0,0
1970-01-01 00:01:40.000,-0.35751368,-0.033457279999999999,-0.91634199999999988,8.2782,-11.628399999999999,3.7352000000000003,0,0,1,0,0,0,0
1970-01-01 00:01:40.500,-0.36066372000000002,0.003723440000000001,-0.91955303999999993,0.53619999999999979,-22.766800000000003,4.4940000000000007,0,0,1,0,0,0,0
1970-01-01 00:01:41.000,-0.25066364000000002,-0.058079320000000004,-0.94337719999999992,15.561,8.6982000000000017,1.4979999999999998,0,0,1,0,0,0,0
1970-01-01 00:01:41.500,-0.40749708000000007,0.0030134000000000072,-0.9059768800000001,-10.417400000000001,20.077400000000001,4.1300000000000008,0,0,1,0,0,0,0
1970-01-01 00:01:42.000,-0.18631352000000004,-0.065606720000000007,-0.95297860000000001,-8.8410000000000011,-10.225599999999996,-13.326599999999996,0,0,1,0,0,0,0
1970-01-01 00:01:42.500,-0.54311471999999994,0.012373239999999992,-0.89453816000000008,-2.2861999999999996,3.2857999999999974,-4.0768000000000004,0,0,1,0,0,0,0
1970-01-01 00:01:43.000,-0.30062995999999997,-0.015611119999999999,-0.94152524000000004,0.1484,3.2003999999999997,1.1312,0,0,1,0,0,0,0
1970-01-01 00:01:43.500,-0.33702744000000001,-0.0080031999999999985,-0.91366044000000002,2.2091999999999992,-56.690200000000004,10.735199999999999,0,0,1,0,0,0,0
1970-01-01 00:01:44.000,-0.4234986,-0.028416239999999999,-0.89807616000000001,8.9529999999999994,21.753199999999996,-8.5890000000000004,0,0,1,0,0,0,0
1970-01-01 00:01:44.500,-0.37560872000000001,-0.04005504,-0.91243067999999994,2.0705999999999998,12.165999999999999,4.3049999999999997,0,0,1,0,0,0,0
1970-01-01 00:01:45.000,-0.32825564000000002,-0.036063200000000004,-0.92297879999999988,-5.4753999999999987,20.355999999999998,3.5335999999999994,0,0,1,0,0,0,0
1970-01-01 00:01:45.500,-0.30975311999999994,-0.032032320000000003,-0.93961227999999997,3.8164000000000011,-13.564599999999999,2.0132000000000003,0,0,1,0,0,0,0
1970-01-01 00:01:46.000,-0.22981627999999998,-0.099430000000000018,-1.0094133600000001,-15.222199999999997,-6.3924000000000021,-15.974,0,0,1,0,0,0,0
1970-01-01 00:01:46.500,-0.54227048,0.055475839999999998,-0.83175208,-2.1615999999999995,8.708000000000002,-0.22260000000000044,0,0,1,0,0,0,0
1970-01-01 00:01:47.000,-0.29337096000000001,-0.0033110799999999997,-0.94378467999999993,0.83440000000000003,3.3361999999999994,0.029400000000000048,0,0,1,0,0,0,0
1970-01-01 00:01:47.500,-0.31169536000000003,-0.01155584,-0.93696732000000016,10.967599999999999,-40.207999999999998,2.9134000000000002,0,0,1,0,0,0,0
1970-01-01 00:01:48.000,-0.28934984000000002,-0.038652039999999999,-0.94306000000000001,-0.38919999999999999,-0.17920000000000003,-0.38500000000000001,0,0,1,0,0,0,0
1970-01-01 00:01:48.500,-0.28026815999999999,-0.037339319999999995,-0.94523891999999998,-0.73919999999999986,1.1157999999999999,-0.2198,0,0,1,0,0,0,0
1970-01-01 00:01:49.000,-0.33323079999999999,-0.044332360000000001,-0.93210927999999993,4.6844000000000001,-11.171999999999999,2.0677999999999996,0,0,1,0,0,0,0
1970-01-01 00:01:49.500,-0.32524712,-0.049529559999999993,-0.92406215999999985,11.747400000000001,-12.817,3.6847999999999996,0,0,1,0,0,0,0
1970-01-01 00:01:50.000,-0.33317955999999993,-0.059904440000000003,-0.92867376000000013,-2.2848000000000002,-2.7160000000000002,-0.21139999999999992,0,0,1,0,0,0,0
1970-01-01 00:01:50.500,-0.41427052000000003,-0.086058800000000005,-0.92487467999999995,-11.551400000000001,-86.701999999999984,16.690800000000003,0,0,1,0,0,0,0
1970-01-01 00:01:51.000,-0.42502603999999999,-0.02586888,-0.85226516000000008,-6.9481999999999982,91.015400000000014,-32.655000000000001,0,0,1,0,0,0,0
1970-01-01 00:01:51.500,-0.30975555999999999,-0.019895759999999998,-0.93801407999999997,-0.75460000000000005,3.1150000000000002,1.5204000000000002,0,0,1,0,0,0,0
1970-01-01 00:01:52.000,-0.35575444000000006,-0.038305560000000002,-0.91831839999999998,9.4667999999999992,-14.072799999999999,0.98700000000000021,0,0,1,0,0,0,0
1970-01-01 00:01:52.500,-0.37863431999999997,-0.03267892,-0.9079898799999998,-6.8431999999999995,2.2833999999999999,6.9986000000000015,0,0,1,0,0,0,0
1970-01-01 00:01:53.000,-0.34872236000000001,-0.047438479999999998,-0.92476000000000003,4.7656000000000001,7.3331999999999997,-6.6472000000000007,0,0,1,0,0,0,0
1970-01-01 00:01:53.500,-0.32990508000000007,-0.063188679999999997,-0.93472983999999992,5.6616000000000009,-36.866199999999999,-2.1336000000000008,0,0,1,0,0,0,0
1970-01-01 00:01:54.000,-0.38361435999999999,-0.036204719999999996,-0.91110332000000005,-21.572599999999998,21.977199999999996,-19.551000000000002,0,0,1,0,0,0,0
1970-01-01 00:01:54.500,-0.37460099999999996,-0.013585919999999998,-0.91781819999999992,1.5469999999999999,12.0456,0.20720000000000025,0,0,1,0,0,0,0
1970-01-01 00:01:55.000,-0.28509203999999999,-0.016997040000000001,-0.94733243999999983,2.6334000000000004,-6.5268000000000006,0.31080000000000008,0,0,1,0,0,0,0
1970-01-01 00:01:55.500,-0.39601199999999998,-0.050029760000000006,-0.89965239999999991,10.151400000000001,-44.356199999999987,5.3186,0,0,1,0,0,0,0
1970-01-01 00:01:56.000,-0.37575512000000005,-0.041350680000000001,-0.91084956000000006,0.69579999999999953,5.1660000000000004,-1.6421999999999999,0,0,1,0,0,0,0
1970-01-01 00:01:56.500,-0.34743891999999993,-0.050507999999999997,-0.92388892,3.0996000000000006,22.943200000000001,7.4340000000000011,0,0,1,0,0,0,0
1970-01-01 00:01:57.000,-0.31330088,-0.05116192,-0.93145047999999986,-9.2959999999999994,16.171400000000002,-10.444000000000003,0,0,1,0,0,0,0
1970-01-01 00:01:57.500,-0.22975772000000003,-0.1083726,-1.0034329200000001,1.9865999999999997,-28.401800000000009,9.2973999999999979,0,0,1,0,0,0,0
1970-01-01 00:01:58.000,-0.54167756,0.055519760000000001,-0.83381875999999988,-9.4163999999999994,18.898599999999998,-25.260200000000001,0,0,1,0,0,0,0
1970-01-01 00:01:58.500,-0.29553524000000003,-0.005973120000000001,-0.94209375999999989,1.3552000000000002,-0.28000000000000003,-0.48859999999999987,0,0,1,0,0,0,0
1970-01-01 00:01:59.000,-0.32093075999999998,-0.0066807200000000002,-0.93488599999999988,9.5493999999999986,-32.204200000000007,12.702199999999998,0,0,1,0,0,0,0
1970-01-01 00:01:59.500,-0.44744963999999998,-0.049083040000000001,-0.87517676000000011,6.6975999999999996,0.62580000000000102,-1.6464000000000001,0,0,1,0,0,0,0
1970-01-01 00:02:00.000,-0.35893864000000003,-0.015291480000000001,-0.91334568000000005,-9.7089999999999979,33.548199999999994,-3.2018,0,0,1,0,0,0,0
1970-01-01 00:02:00.500,-0.31233464,-0.028762720000000002,-0.93124552000000005,1.7402000000000004,-19.889800000000001,-6.2832000000000008,0,0,1,0,0,0,0
1970-01-01 00:02:01.000,-0.27189408000000004,-0.046267280000000001,-0.96247020000000005,-6.2131999999999996,-30.339400000000001,10.204599999999999,0,0,1,0,0,0,0
1970-01-01 00:02:01.500,-0.60657911999999992,0.049749160000000001,-0.87179980000000001,3.2941999999999996,34.505799999999994,-6.3475999999999999,0,0,1,0,0,0,0
1970-01-01 00:02:02.000,-0.28975000000000006,-0.00067100000000000005,-0.94504127999999998,1.2109999999999999,-0.86939999999999995,-2.6880000000000002,0,0,1,0,0,0,0
1970-01-01 00:02:02.500,-0.3512770400000001,-0.036848880000000001,-0.91366532000000011,8.0513999999999992,-10.627399999999998,4.9000000000000004,0,0,1,0,0,0,0
1970-01-01 00:02:03.000,-0.42255187999999999,-0.056539679999999988,-0.89071955999999997,12.803000000000003,-59.656800000000004,1.1998,0,0,1,0,0,0,0
1970-01-01 00:02:03.500,-0.40148736000000013,-0.03508232,-0.88657156000000015,-6.8180000000000005,54.070800000000006,5.3634000000000004,0,0,1,0,0,0,0
1970-01-01 00:02:04.000,-0.30497804000000001,-0.026805840000000001,-0.94293800000000016,-4.9196,-48.729799999999997,1.7962,0,0,1,0,0,0,0
1970-01-01 00:02:04.500,-0.37272952000000004,0.027862359999999992,-0.86760056000000008,-8.0556000000000019,56.603400000000008,-12.014800000000001,0,0,1,0,0,0,0
1970-01-01 00:02:05.000,-0.30494632000000005,0.0061414800000000004,-0.94063220000000003,0.90859999999999985,3.9438,-2.8770000000000007,0,0,1,0,0,0,0
1970-01-01 00:02:05.500,-0.26901488000000001,-0.0021569600000000007,-0.95882484000000001,6.9412000000000003,-3.8612000000000002,0.5544,0,0,1,0,0,0,0
1970-01-01 00:02:06.000,-0.36031967999999992,-0.06929600000000001,-0.92091699999999999,0.24920000000000017,-22.813000000000002,4.9377999999999993,0,0,1,0,0,0,0
1970-01-01 00:02:06.500,-0.31852248,0.015845359999999996,-0.90004768000000002,-18.317599999999999,14.634199999999998,-13.321,0,0,1,0,0,0,0
1970-01-01 00:02:07.000,-0.29982475999999997,-0.010462719999999998,-0.94100795999999998,1.7864000000000002,10.777200000000001,-4.0249999999999995,0,0,1,0,0,0,0
1970-01-01 00:02:07.500,-0.28718068000000002,-0.031417439999999998,-0.94280624000000002,9.3436000000000003,-16.490600000000001,2.6151999999999997,0,0,1,0,0,0,0
1970-01-01 00:02:08.000,-0.34128523999999999,-0.060541279999999996,-0.92691940000000006,0.067199999999999871,-1.2782,-3.2746000000000004,0,0,1,0,0,0,0
1970-01-01 00:02:08.500,-0.39502379999999992,-0.049524679999999995,-0.88904083999999994,-5.3046000000000006,-12.513199999999999,-2.8251999999999997,0,0,1,0,0,0,0
1970-01-01 00:02:09.000,-0.34739256000000007,-0.044222559999999994,-0.92660464000000009,6.1348000000000003,10.7408,-1.5091999999999997,0,0,1,0,0,0,0
1970-01-01 00:02:09.500,-0.33398232,-0.062983720000000007,-0.93801164000000004,0.66499999999999959,-26.153400000000001,8.7905999999999995,0,0,1,0,0,0,0
1970-01-01 00:02:10.000,-0.36077107999999997,-0.011082479999999997,-0.88303356000000011,-17.773000000000003,28.5992,-20.059200000000004,0,0,1,0,0,0,0
1970-01-01 00:02:10.500,-0.29288539999999996,-0.02607628,-0.94124707999999979,2.4401999999999999,5.2961999999999998,-1.4895999999999998,0,0,1,0,0,0,0
1970-01-01 00:02:11.000,-0.28249343999999998,-0.019886000000000001,-0.94845484000000002,3.3613999999999997,-9.5101999999999993,1.4041999999999999,0,0,1,0,0,0,0
1970-01-01 00:02:11.500,-0.42586052000000002,-0.05641036,-0.87828287999999999,16.784600000000001,-42.652400000000007,6.1978,0,0,1,0,0,0,0
1970-01-01 00:02:12.000,-0.46310711999999993,-0.081098280000000009,-0.86812027999999997,-5.1925999999999997,6.7592000000000008,-0.41439999999999999,0,0,1,0,0,0,0
1970-01-01 00:02:12.500,-0.38596407999999999,-0.041480000000000003,-0.90460071999999991,-10.420199999999999,25.9406,-3.2718000000000003,0,0,1,0,0,0,0
1970-01-01 00:02:13.000,-0.33204008000000002,-0.024299959999999999,-0.92994743999999996,-3.0575999999999999,-8.257200000000001,-2.0748000000000002,0,0,1,0,0,0,0
1970-01-01 00:02:13.500,-0.58239872000000004,0.00038795999999999791,-0.78989388000000005,1.1060000000000003,-86.105599999999995,0.69580000000000009,0,0,1,0,0,0,0
1970-01-01 00:02:14.000,-0.61851071999999996,-0.019685920000000003,-0.82085992000000008,-0.96600000000000141,79.6614,-15.4504,0,0,1,0,0,0,0
1970-01-01 00:02:14.500,-0.30867707999999999,0.00040016000000000064,-0.94049068000000002,-3.6875999999999993,8.5778000000000016,-1.5133999999999999,0,0,1,0,0,0,0
1970-01-01 00:02:15.000,-0.28042919999999999,-0.0011541199999999998,-0.94708356000000005,1.9418,1.6436000000000002,-0.91000000000000003,0,0,1,0,0,0,0
1970-01-01 00:02:15.500,-0.32955860000000003,-0.0093500800000000002,-0.92162459999999991,15.756999999999998,-61.133800000000001,7.6188000000000011,0,0,1,0,0,0,0
1970-01-01 00:02:16.000,-0.5268326000000001,-0.037192919999999997,-0.83733480000000005,-6.3321999999999994,-33.990600000000001,17.5532,0,0,1,0,0,0,0
1970-01-01 00:02:16.500,-0.60028879999999996,0.00083936000000000069,-0.78458932000000003,8.7542000000000009,25.335800000000003,6.5716000000000001,0,0,1,0,0,0,0
1970-01-01 00:02:17.000,-0.50447487999999996,-0.024495159999999995,-0.85556647999999991,-4.5766,6.5001999999999995,-9.7468000000000004,0,0,1,0,0,0,0
1970-01-01 00:02:17.500,-0.48117532000000002,0.017899840000000007,-0.89869591999999998,-6.4595999999999991,-47.129599999999989,14.459200000000001,0,0,1,0,0,0,0
1970-01-01 00:02:18.000,-0.53871539999999996,0.0045872000000000083,-0.89715627999999992,5.3535999999999992,93.977799999999988,-27.931400000000004,0,0,1,0,0,0,0
1970-01-01 00:02:18.500,-0.29560111999999994,-0.0070174400000000007,-0.94261592000000005,3.234,1.1395999999999999,-1.1760000000000002,0,0,1,0,0,0,0
1970-01-01 00:02:19.000,-0.2854312,-0.01509628,-0.94501688000000006,0.74760000000000004,-0.041999999999999996,0.090999999999999998,0,0,1,0,0,0,0
1970-01-01 00:02:19.500,-0.36530704000000003,-0.021313399999999996,-0.90336852000000012,5.8940000000000001,-64.5428,4.2966000000000006,0,0,1,0,0,0,0
1970-01-01 00:02:20.000,-0.47478740000000003,-0.0060170400000000004,-0.86493852000000004,-8.0457999999999998,-0.21980000000000324,2.1728000000000001,0,0,1,0,0,0,0
1970-01-01 00:02:20.500,-0.47026363999999998,-0.015076759999999998,-0.85855303999999999,-0.22540000000000032,35.327599999999997,-2.5788000000000006,0,0,1,0,0,0,0
1970-01-01 00:02:21.000,-0.38030327999999997,0.00033916000000000073,-0.9060403199999999,-2.0467999999999993,-7.8217999999999996,4.5206,0,0,1,0,0,0,0
1970-01-01 00:02:21.500,-0.33557319999999996,0.015767280000000002,-0.92892752000000001,2.8153999999999995,-4.3035999999999994,0.3276,0,0,1,0,0,0,0
1970-01-01 00:02:22.000,-0.38760131999999997,-0.025122239999999994,-0.89698548,12.292,20.577200000000001,-18.872,0,0,1,0,0,0,0
1970-01-01 00:02:22.500,-0.37543060000000006,0.011358199999999999,-0.9365696,-11.442199999999998,4.3162000000000038,1.3762000000000001,0,0,1,0,0,0,0
1970-01-01 00:02:23.000,-0.27649592000000001,-0.0022228400000000002,-0.94861100000000009,0.39480000000000004,0.67900000000000005,-0.22120000000000001,0,0,1,0,0,0,0
1970-01-01 00:02:23.500,-0.36455796000000001,-0.030246239999999997,-0.8816891200000001,19.807200000000002,-96.180000000000007,11.027799999999999,0,0,1,0,0,0,0
1970-01-01 00:02:24.000,-0.29624527999999994,-0.04136776000000001,-0.93128700000000009,-15.792000000000005,53.008199999999995,-5.4543999999999997,0,0,1,0,0,0,0
1970-01-01 00:02:24.500,-0.29427619999999999,-0.040994439999999993,-0.94003927999999992,7.0937999999999999,-22.810199999999998,5.8604000000000012,0,0,1,0,0,0,0
1970-01-01 00:02:25.000,-0.46386352000000003,-0.065565239999999997,-0.90140675999999986,-17.869600000000002,19.280800000000003,-16.374399999999998,0,0,1,0,0,0,0
1970-01-01 00:02:25.500,-0.27711812000000002,-0.025319880000000006,-0.94612951999999995,8.1648000000000014,-1.6995999999999989,-1.2851999999999999,0,0,1,0,0,0,0
1970-01-01 00:02:26.000,-0.27134019999999998,-0.033215720000000004,-0.95054103999999995,1.1661999999999999,0.49419999999999986,-1.0471999999999999,0,0,1,0,0,0,0
1970-01-01 00:02:26.500,-0.26645287999999995,-0.037012359999999994,-0.95489888000000012,5.4348000000000001,-38.375399999999999,2.0943999999999998,0,0,1,0,0,0,0
1970-01-01 00:02:27.000,-0.49839196000000002,-0.037468640000000004,-0.8395405600000001,0.41860000000000014,-5.7973999999999997,9.8139999999999983,0,0,1,0,0,0,0
1970-01-01 00:02:27.500,-0.46532508,-0.066926760000000002,-0.86040987999999996,13.404999999999999,-28.912800000000001,1.3271999999999999,0,0,1,0,0,0,0
1970-01-01 00:02:28.000,-0.38167943999999998,-0.047084680000000011,-0.90983939999999985,-8.5036000000000005,61.800199999999997,3.4720000000000004,0,0,1,0,0,0,0
1970-01-01 00:02:28.500,-0.35112088000000002,-0.056817839999999994,-0.9092538,10.176600000000001,-53.755800000000001,-2.3757999999999995,0,0,1,0,0,0,0
1970-01-01 00:02:29.000,-0.35066947999999998,-0.072936479999999998,-0.91502927999999994,-19.102999999999998,41.797000000000004,-9.4023999999999983,0,0,1,0,0,0,0
1970-01-01 00:02:29.500,-0.45815148,0.032015240000000007,-0.93986115999999997,-0.043399999999999703,3.0869999999999997,-6.1585999999999999,0,0,1,0,0,0,0
1970-01-01 00:02:30.000,-0.28468212000000004,-0.013210160000000002,-0.9456585999999999,0.80500000000000016,1.9852000000000001,-0.54320000000000013,0,0,1,0,0,0,0
1970-01-01 00:02:30.500,-0.41468531999999997,-0.024683040000000003,-0.87815356000000011,9.8826000000000018,-59.635799999999996,5.9374000000000002,0,0,1,0,0,0,0
1970-01-01 00:02:31.000,-0.49311424000000004,-0.041877719999999986,-0.86336471999999997,-1.7304000000000002,-19.920599999999997,-0.3038000000000004,0,0,1,0,0,0,0
1970-01-01 00:02:31.500,-0.53655112000000005,-0.0043724799999999998,-0.82158215999999995,-1.3286000000000002,37.002000000000002,3.6246000000000005,0,0,1,0,0,0,0
1970-01-01 00:02:32.000,-0.36590971999999999,-0.013761600000000001,-0.91869171999999988,-0.29399999999999993,18.110399999999998,0.015399999999999884,0,0,1,0,0,0,0
1970-01-01 00:02:32.500,-0.37054816000000002,-0.011619279999999999,-0.93105519999999986,-4.3456000000000001,-63.48579999999999,3.2885999999999997,0,0,1,0,0,0,0
1970-01-01 00:02:33.000,-0.57164075999999997,0.042997679999999983,-0.86908407999999993,2.5886,65.689399999999992,-5.2696000000000014,0,0,1,0,0,0,0
1970-01-01 00:02:33.500,-0.29835588000000002,-0.0033989199999999997,-0.94355776000000002,2.2973999999999997,4.0179999999999998,-0.97299999999999998,0,0,1,0,0,0,0
1970-01-01 00:02:34.000,-0.27489772000000001,-0.0068222399999999994,-0.94774236000000001,2.2204000000000002,-0.34160000000000013,-2.1545999999999998,0,0,1,0,0,0,0
1970-01-01 00:02:34.500,-0.38216988000000002,-0.0098502799999999995,-0.88894568000000007,2.0566000000000004,-67.914000000000001,3.3152000000000008,0,0,1,0,0,0,0
1970-01-01 00:02:35.000,-0.49272872000000006,-0.00036600000000000131,-0.85036196000000008,-4.8537999999999997,15.457400000000002,16.532599999999999,0,0,1,0,0,0,0
1970-01-01 00:02:35.500,-0.36363076,-0.007517639999999999,-0.92220288000000006,6.6037999999999997,32.751599999999996,-20.442799999999998,0,0,1,0,0,0,0
1970-01-01 00:02:36.000,-0.4097760399999999,-0.023714359999999997,-0.89174679999999995,5.418000000000001,-32.216799999999999,9.1979999999999986,0,0,1,0,0,0,0
1970-01-01 00:02:36.500,-0.37177059999999995,-0.0029645999999999991,-0.91473648000000007,-7.6272000000000002,24.197600000000001,4.6368000000000009,0,0,1,0,0,0,0
1970-01-01 00:02:37.000,-0.38294091999999991,-0.08692256000000001,-0.90374184000000002,5.7805999999999997,-3.2787999999999986,-37.389800000000001,0,0,1,0,0,0,0
1970-01-01 00:02:37.500,-0.39645851999999998,0.036775679999999998,-0.92746839999999997,-5.952799999999999,17.9102,3.4607999999999999,0,0,1,0,0,0,0
1970-01-01 00:02:38.000,-0.2863096,-0.010772599999999998,-0.94506079999999992,0.88619999999999988,0.64960000000000018,-0.66500000000000004,0,0,1,0,0,0,0
1970-01-01 00:02:38.500,-0.46285579999999998,-0.0090158000000000009,-0.84135592000000003,6.2202000000000002,-82.830999999999989,14.3346,0,0,1,0,0,0,0
1970-01-01 00:02:39.000,-0.53773451999999999,-0.012702640000000001,-0.83233523999999992,11.780999999999999,14.917,15.566600000000003,0,0,1,0,0,0,0
1970-01-01 00:02:39.500,-0.52135723999999994,-0.0085717199999999997,-0.84871251999999997,-6.1235999999999997,-0.97859999999999947,-2.8224,0,0,1,0,0,0,0
1970-01-01 00:02:40.000,-0.51640159999999991,0.028643160000000001,-0.84066783999999994,-0.29399999999999993,-17.1556,2.5942000000000007,0,0,1,0,0,0,0
1970-01-01 00:02:40.500,-0.5784142000000001,-0.012897839999999994,-0.86417235999999986,-25.446399999999997,-37.514400000000002,21.048999999999996,0,0,1,0,0,0,0
1970-01-01 00:02:41.000,-0.55846232000000007,0.039989159999999996,-0.73182920000000007,32.516399999999997,100.51719999999999,-41.091399999999993,0,0,1,0,0,0,0
1970-01-01 00:02:41.500,-0.30645423999999999,-0.021572040000000001,-0.93667208000000002,-5.1226000000000012,16.906399999999998,3.3669999999999991,0,0,1,0,0,0,0
1970-01-01 00:02:42.000,-0.36685156000000008,-0.012561120000000002,-0.91895523999999995,-1.2138,2.6656000000000004,0.75180000000000036,0,0,1,0,0,0,0
1970-01-01 00:02:42.500,-0.38855779999999995,-0.023958360000000001,-0.89892527999999994,2.2078000000000007,-39.002600000000001,-0.21700000000000003,0,0,1,0,0,0,0
1970-01-01 00:02:43.000,-0.35857752000000004,0.0095525999999999996,-0.92781488000000001,2.1797999999999997,16.909200000000002,9.8573999999999984,0,0,1,0,0,0,0
1970-01-01 00:02:43.500,-0.33841823999999987,-0.016286999999999999,-0.92386208000000014,-3.1373999999999995,14.191799999999999,-4.1482000000000001,0,0,1,0,0,0,0
1970-01-01 00:02:44.000,-0.38139152000000004,0.027454880000000004,-0.88053988000000005,-20.472200000000001,-11.473000000000004,-16.680999999999997,0,0,1,0,0,0,0
1970-01-01 00:02:44.500,-0.38196247999999999,-0.045740240000000008,-0.93471032000000009,6.9846000000000013,15.286599999999998,-6.6191999999999993,0,0,1,0,0,0,0
1970-01-01 00:02:45.000,-0.28886671999999997,0.0055876000000000007,-0.94394816000000004,1.8788,-1.2697999999999998,1.8255999999999997,0,0,1,0,0,0,0
1970-01-01 00:02:45.500,-0.30106672000000001,-0.00183976,-0.9484548399999998,2.3296000000000006,-17.872400000000003,6.391,0,0,1,0,0,0,0
1970-01-01 00:02:46.000,-0.34004328,-0.0085448800000000012,-0.90881215999999998,5.1478000000000002,20.819399999999995,-6.0872000000000002,0,0,1,0,0,0,0
1970-01-01 00:02:46.500,-0.23943963999999998,-0.0090475199999999981,-0.96456859999999989,-3.4118000000000008,-11.481400000000001,5.0442,0,0,1,0,0,0,0
1970-01-01 00:02:47.000,-0.29855596000000001,-0.0075420400000000025,-0.92885919999999988,5.9639999999999995,9.6711999999999989,3.9185999999999996,0,0,1,0,0,0,0
1970-01-01 00:02:47.500,-0.34527708000000001,-0.013439520000000003,-0.90068695999999993,-1.8620000000000005,-2.1979999999999991,0.50960000000000005,0,0,1,0,0,0,0
1970-01-01 00:02:48.000,-0.25454568,-0.02208688,-0.98197556000000008,4.6452,-57.372,7.8203999999999994,0,0,1,0,0,0,0
1970-01-01 00:02:48.500,-0.48552096,0.019380919999999999,-0.90566943999999994,-12.626600000000002,50.959999999999994,-24.737999999999996,0,0,1,0,0,0,0
1970-01-01 00:02:49.000,-0.25439196000000003,-0.0069710800000000019,-0.95580656000000008,-0.65379999999999983,4.1888000000000005,-1.1647999999999998,0,0,1,0,0,0,0
1970-01-01 00:02:49.500,-0.27117672000000004,0.0011541199999999994,-0.94887452000000005,-1.8298000000000001,-50.7682,4.7236000000000002,0,0,1,0,0,0,0
1970-01-01 00:02:50.000,-0.37803407999999999,-0.011355759999999999,-0.90271460000000003,10.857000000000001,-18.1006,-0.90579999999999994,0,0,1,0,0,0,0
1970-01-01 00:02:50.500,-0.4454342,-0.013742079999999999,-0.88020071999999983,-2.1783999999999999,46.306400000000004,0.39200000000000029,0,0,1,0,0,0,0
1970-01-01 00:02:51.000,-0.37743384000000008,-0.010782360000000001,-0.90777759999999996,-2.0356000000000005,-1.5624000000000007,0.37660000000000005,0,0,1,0,0,0,0
1970-01-01 00:02:51.500,-0.31112196000000003,-0.012021880000000002,-0.94443616000000008,2.0552000000000001,-24.505600000000001,3.1122000000000001,0,0,1,0,0,0,0
1970-01-01 00:02:52.000,-0.45889323999999987,0.033593919999999999,-0.92406215999999997,-1.0457999999999996,28.536200000000004,0.29680000000000006,0,0,1,0,0,0,0
1970-01-01 00:02:52.500,-0.27714984000000004,-0.0096306800000000008,-0.94971388000000001,-0.41160000000000002,2.7495999999999996,-0.43400000000000011,0,0,1,0,0,0,0
1970-01-01 00:02:53.000,-0.25217887999999999,-0.0046286799999999996,-0.9580440400000001,1.4545999999999999,-12.4642,1.6562000000000001,0,0,1,0,0,0,0
1970-01-01 00:02:53.500,-0.38995104000000003,-0.0020910800000000008,-0.89014128000000015,5.1337999999999999,6.5827999999999998,11.659200000000004,0,0,1,0,0,0,0
1970-01-01 00:02:54.000,-0.30203784,-0.011956,-0.93393928000000015,2.6404000000000001,-1.243200000000001,-4.9181999999999997,0,0,1,0,0,0,0
1970-01-01 00:02:54.500,-0.31084867999999999,-0.021274359999999999,-0.93960496000000004,0.94219999999999982,-19.741399999999999,-0.0055999999999999514,0,0,1,0,0,0,0
1970-01-01 00:02:55.000,-0.47803015999999998,0.039859839999999994,-0.84067271999999993,5.8786000000000014,-5.283599999999999,12.2836,0,0,1,0,0,0,0
1970-01-01 00:02:55.500,-0.40532792000000001,0.0035941199999999997,-0.88197703999999988,2.3477999999999999,12.502000000000002,8.7178000000000004,0,0,1,0,0,0,0
1970-01-01 00:02:56.000,-0.29908056,-0.056254200000000011,-0.94557807999999999,-1.5624000000000007,-6.3867999999999983,-33.324199999999998,0,0,1,0,0,0,0
1970-01-01 00:02:56.500,-0.40164352000000009,0.056786120000000002,-0.94249880000000008,-11.265799999999999,8.7975999999999992,0.35980000000000018,0,0,1,0,0,0,0
1970-01-01 00:02:57.000,-0.24753555999999999,-0.0058340400000000004,-0.96931928000000001,0.0420000000000001,-32.183199999999999,-0.81480000000000019,0,0,1,0,0,0,0
1970-01-01 00:02:57.500,-0.52527099999999993,-0.0067490400000000013,-0.82107708000000013,12.324199999999998,-42.120399999999989,14.572600000000001,0,0,1,0,0,0,0
1970-01-01 00:02:58.000,-0.52285540000000008,-0.0054192400000000005,-0.83779108000000013,-3.3501999999999996,6.5044000000000004,12.166000000000002,0,0,1,0,0,0,0
1970-01-01 00:02:58.500,-0.48237823999999996,0.0095477200000000009,-0.85405856000000013,1.1199999999999997,19.266800000000003,6.4232000000000005,0,0,1,0,0,0,0
1970-01-01 00:02:59.000,-0.41632012000000002,0.023658240000000001,-0.90097732000000019,-3.5224000000000002,-2.3898000000000024,3.6777999999999995,0,0,1,0,0,0,0
1970-01-01 00:02:59.500,-0.31227364000000002,0.0056998399999999994,-0.95839296000000007,-3.5055999999999998,-8.3845999999999989,-8.562400000000002,0,1,1,0,0,0,0
1970-01-01 00:03:00.000,-0.23899068000000001,-0.016099120000000001,-0.95749504000000019,3.3152000000000004,-4.3889999999999993,-0.79799999999999993,0,1,0,0,0,0,0
1970-01-01 00:03:00.500,-0.25675144000000005,-0.022440679999999994,-0.95335191999999991,0.31499999999999995,-6.2846000000000002,0.33039999999999997,0,1,0,0,0,0,0
1970-01-01 00:03:01.000,-0.26929548000000003,-0.021611080000000001,-0.94995300000000005,0.46200000000000002,-6.7298,-1.3762000000000001,0,1,0,0,0,0,0
1970-01-01 00:03:01.500,-0.159637,-0.09842960000000002,-0.93715520000000008,-1.1983999999999999,-0.036400000000000238,-36.531600000000005,0,1,0,0,0,0,0
1970-01-01 00:03:02.000,-0.40463008,0.023567960000000002,-0.9055084000000001,-9.1434000000000015,0.47740000000000166,0.57120000000000015,0,1,0,0,0,0,0
1970-01-01 00:03:02.500,-0.24620820000000002,-0.036112000000000005,-0.95568455999999979,1.1452,-0.7028000000000002,-2.1196000000000002,0,1,0,0,0,0,0
1970-01-01 00:03:03.000,-0.23811715999999999,-0.035131120000000002,-0.95745843999999991,-0.12040000000000002,-0.057399999999999979,-0.25619999999999998,0,1,0,0,0,0,0
1970-01-01 00:03:03.500,-0.23381056,-0.036085159999999998,-0.95830267999999985,0.73919999999999997,-1.7737999999999996,-1.1312,0,1,0,0,0,0,0
1970-01-01 00:03:04.000,-0.22771787999999998,-0.030585399999999999,-0.96009363999999986,-1.6520000000000001,-0.8358000000000001,1.3496000000000001,0,1,0,0,0,0,0
1970-01-01 00:03:04.500,-0.22785452000000003,-0.025734679999999999,-0.96062555999999999,1.5651999999999999,-3.8626,-2.0048000000000004,0,1,0,0,0,0,0
1970-01-01 00:03:05.000,-0.23412043999999999,-0.031583360000000005,-0.95825631999999994,-0.20720000000000002,-2.7313999999999998,0.63279999999999992,0,1,0,0,0,0,0
1970-01-01 00:03:05.500,-0.26739715999999997,-0.031841999999999995,-0.9541351600000002,1.6254000000000002,-45.151399999999995,-0.98140000000000005,0,1,0,0,0,0,0
1970-01-01 00:03:06.000,-0.27418036000000001,-0.04396147999999999,-0.95331043999999987,-16.826599999999999,24.194799999999997,-21.719599999999996,0,1,0,0,0,0,0
1970-01-01 00:03:06.500,-0.43117971999999993,0.02476356,-0.90342708000000005,5.3368000000000002,4.4407999999999994,19.478200000000001,0,1,0,0,0,0,0
1970-01-01 00:03:07.000,-0.2720844,-0.0035721599999999996,-0.95058007999999983,1.3817999999999997,0.016799999999999989,-2.2567999999999997,0,1,0,0,0,0,0
1970-01-01 00:03:07.500,-0.26576968000000006,-0.0055412399999999994,-0.95130964000000018,1.2138,-1.6547999999999998,-0.77560000000000018,0,1,0,0,0,0,0
1970-01-01 00:03:08.000,-0.26115075999999998,-0.00781776,-0.95251500000000011,0.875,-0.89600000000000013,0.6090000000000001,0,1,0,0,0,0,0
1970-01-01 00:03:08.500,-0.25705644,-0.010018639999999999,-0.95355688000000005,0.4214,-1.4937999999999996,-0.28840000000000005,0,1,0,0,0,0,0
1970-01-01 00:03:09.000,-0.25698811999999999,-0.009333000000000001,-0.95327384000000004,0.66080000000000017,-4.2966000000000006,-0.56140000000000001,0,1,0,0,0,0,0
1970-01-01 00:03:09.500,-0.28824208000000001,-0.0088328,-0.94710552000000003,-11.884600000000001,-42.236599999999996,-5.1491999999999996,0,1,0,0,0,0,0
1970-01-01 00:03:10.000,-0.41445351999999991,0.022440680000000001,-0.88022512000000008,-0.11060000000000088,-2.4220000000000015,-22.433600000000002,0,1,0,0,0,0,0
1970-01-01 00:03:10.500,-0.33810836,0.019622480000000001,-0.92788808,2.4583999999999997,27.378400000000006,13.203400000000002,0,1,0,0,0,0,0
1970-01-01 00:03:11.000,-0.38979244000000002,0.0021032800000000003,-0.91499024000000007,4.4547999999999996,2.5059999999999998,7.9379999999999988,0,1,0,0,0,0,0
1970-01-01 00:03:11.500,-0.28744175999999999,-7.3200000000000172e-06,-0.94583183999999987,1.1186,0.86520000000000019,-0.16659999999999997,0,1,0,0,0,0,0
1970-01-01 00:03:12.000,-0.27856747999999998,-0.0011175200000000001,-0.94775212000000009,0.13300000000000003,-1.0346000000000002,0.12739999999999996,0,1,0,0,0,0,0
1970-01-01 00:03:12.500,-0.27528079999999999,0.0018690400000000002,-0.94937228000000007,0.57820000000000005,-1.6743999999999999,-0.46900000000000008,0,1,0,0,0,0,0
1970-01-01 00:03:13.000,-0.27218443999999997,-0.00076127999999999992,-0.94905751999999988,-0.31919999999999998,-2.9525999999999994,-0.44520000000000004,0,1,0,0,0,0,0
1970-01-01 00:03:13.500,-0.26592828000000002,0.00071492000000000137,-0.9625873199999998,0.27860000000000001,-34.935600000000001,-0.94359999999999999,0,1,0,0,0,0,0
1970-01-01 00:03:14.000,-0.25597796,-0.0060341199999999996,-0.91723504,1.4335999999999995,26.633600000000001,2.3534000000000002,0,1,0,0,0,0,0
1970-01-01 00:03:14.500,-0.35919971999999994,-0.0043066000000000024,-0.92333503999999988,0.72240000000000004,5.6853999999999996,-2.2875999999999999,0,1,0,0,0,0,0
1970-01-01 00:03:15.000,-0.25624392000000001,-0.01100684,-0.95344951999999994,2.2232000000000003,-0.6846000000000001,-2.1322000000000001,0,1,0,0,0,0,0
1970-01-01 00:03:15.500,-0.25097352000000006,-0.0070345199999999998,-0.95500867999999983,-1.2935999999999999,-1.0415999999999999,1.4070000000000003,0,1,0,0,0,0,0
1970-01-01 00:03:16.000,-0.24815287999999999,-0.0072712000000000002,-0.95597979999999994,0.73780000000000001,-2.1349999999999998,-0.56419999999999992,0,1,0,0,0,0,0
1970-01-01 00:03:16.500,-0.24976327999999998,-0.007925119999999999,-0.95553816000000003,0.34860000000000002,-3.8136000000000001,-1.4839999999999998,0,1,0,0,0,0,0
1970-01-01 00:03:17.000,-0.19754728000000005,-0.011221559999999998,-0.96774059999999995,-9.0188000000000006,-25.016599999999997,-1.0051999999999999,0,1,0,0,0,0,0
1970-01-01 00:03:17.500,-0.38566151999999998,0.01589904,-0.92588972000000003,11.1174,21.288400000000003,4.4674000000000005,0,1,0,0,0,0,0
1970-01-01 00:03:18.000,-0.30255024000000003,0.0022301599999999997,-0.94153744000000006,1.5792000000000002,0.7462000000000002,-0.94920000000000004,0,1,0,0,0,0,0
1970-01-01 00:03:18.500,-0.29491548000000001,-0.0028670000000000006,-0.94317711999999998,0.70840000000000003,-1.2614000000000001,-0.9002,0,1,0,0,0,0,0
1970-01-01 00:03:19.000,-0.28947428000000003,0.00031476000000000003,-0.94461183999999987,0.25619999999999998,-0.24079999999999999,0.43820000000000009,0,1,0,0,0,0,0
1970-01-01 00:03:19.500,-0.28287408000000003,-0.0017250800000000001,-0.94631007999999983,0.8862000000000001,-1.6799999999999999,-0.5361999999999999,0,1,0,0,0,0,0
1970-01-01 00:03:20.000,-0.27873584000000001,-0.0021813599999999998,-0.94767648000000004,0.57399999999999995,-1.0556000000000001,-0.11200000000000003,0,1,0,0,0,0,0
1970-01-01 00:03:20.500,-0.27296280000000001,-0.0028913999999999997,-0.94921368000000006,0.6621999999999999,-1.1998,-1.7625999999999999,0,1,0,0,0,0,0
1970-01-01 00:03:21.000,-0.27801115999999998,-0.0068710399999999993,-0.94895992000000007,1.3677999999999999,-8.5134000000000007,-0.16660000000000008,0,1,0,0,0,0,0
1970-01-01 00:03:21.500,-0.44363103999999998,0.010609119999999998,-0.88176476000000004,-13.6808,-66.364199999999997,0.078400000000000483,0,1,0,0,0,0,0
1970-01-01 00:03:22.000,-0.53050479999999989,0.066497319999999999,-0.83967232000000014,-16.513000000000002,-0.48019999999999996,-5.9598000000000004,0,1,0,0,0,0,0
1970-01-01 00:03:22.500,-0.49732811999999993,0.070540400000000003,-0.86215448000000006,22.3398,56.972999999999992,10.830399999999999,0,1,0,0,0,0,0
1970-01-01 00:03:23.000,-0.29936847999999999,0.0030451200000000001,-0.94296972000000001,4.2490000000000006,1.8368,-3.4370000000000003,0,1,0,0,0,0,0
1970-01-01 00:03:23.500,-0.28465772000000006,-0.0018763599999999997,-0.94593676000000015,0.84839999999999993,1.1382000000000003,0.46899999999999997,0,1,0,0,0,0,0
1970-01-01 00:03:24.000,-0.27311407999999998,0.0017543599999999995,-0.94929664000000014,-0.74760000000000004,-0.76859999999999995,-0.31780000000000003,0,1,0,0,0,0,0
1970-01-01 00:03:24.500,-0.26938331999999998,-0.00011468000000000006,-0.95037512000000002,2.0132000000000003,-1.8480000000000001,-0.060199999999999997,0,1,0,0,0,0,0
1970-01-01 00:03:25.000,-0.26875380000000004,-0.0028718799999999998,-0.95029459999999999,0.18900000000000003,-2.5899999999999999,-1.2838000000000001,0,1,0,0,0,0,0
1970-01-01 00:03:25.500,-0.27198680000000003,-0.0015811200000000003,-0.94955283999999995,0.16239999999999999,-4.6970000000000001,-1.4363999999999999,0,1,0,0,0,0,0
1970-01-01 00:03:26.000,-0.29904639999999999,-0.00071003999999999956,-0.94644672000000019,-14.784000000000001,-36.162000000000006,2.6557999999999997,0,1,0,0,0,0,0
1970-01-01 00:03:26.500,-0.49565428000000011,0.093515440000000005,-0.85416103999999993,-12.135199999999998,-42.8596,-8.7178000000000004,0,1,0,0,0,0,0
1970-01-01 00:03:27.000,-0.48664824000000001,0.087510599999999994,-0.85869211999999995,19.9514,54.926199999999987,-2.8700000000000001,0,1,0,0,0,0,0
1970-01-01 00:03:27.500,-0.39018039999999998,0.0094257200000000003,-0.91261856000000008,4.5472000000000001,13.371400000000001,0.6496000000000004,0,1,0,0,0,0,0
1970-01-01 00:03:28.000,-0.29080651999999996,-0.00528992,-0.94433612,0.23660000000000003,-0.94079999999999997,0.081199999999999994,0,1,0,0,0,0,0
1970-01-01 00:03:28.500,-0.283833,-0.0026888800000000003,-0.94619296000000008,0.65239999999999998,-0.7742,-0.71260000000000001,0,1,0,0,0,0,0
1970-01-01 00:03:29.000,-0.27941172000000003,-0.0058999199999999995,-0.9476691599999999,0.60060000000000013,-1.4084000000000001,0.32199999999999995,0,1,0,0,0,0,0
1970-01-01 00:03:29.500,-0.27612016,-0.0059218799999999992,-0.94821328000000005,0.66920000000000002,-2.1266000000000003,-0.87219999999999986,0,1,0,0,0,0,0
1970-01-01 00:03:30.000,-0.28517256000000002,-0.00143228,-0.94645648000000004,-2.0005999999999999,-7.4172000000000002,0.59499999999999997,0,1,0,0,0,0,0
1970-01-01 00:03:30.500,-0.41241855999999999,0.015162160000000001,-0.89658044000000003,-12.331200000000001,-81.58359999999999,-2.835,0,1,0,0,0,0,0
1970-01-01 00:03:31.000,-0.57146752000000012,0.053823959999999997,-0.81094620000000006,-8.9572000000000003,10.6554,-6.411999999999999,0,1,0,0,0,0,0
1970-01-01 00:03:31.500,-0.54545712000000002,0.061431880000000001,-0.83636611999999999,19.139400000000002,48.837600000000002,11.675999999999998,0,1,0,0,0,0,0
1970-01-01 00:03:32.000,-0.34363495999999999,0.0075957200000000011,-0.92958144000000009,3.4215999999999998,3.7267999999999994,-2.0005999999999999,0,1,0,0,0,0,0
1970-01-01 00:03:32.500,-0.33339671999999998,0.00069783999999999981,-0.93148220000000004,0.96600000000000008,-0.81480000000000008,-0.13999999999999999,0,1,0,0,0,0,0
1970-01-01 00:03:33.000,-0.32602303999999999,0.0027279200000000004,-0.93377824000000009,0.48019999999999996,-0.89460000000000006,0.11899999999999998,0,1,0,0,0,0,0
1970-01-01 00:03:33.500,-0.32211415999999998,0.00070759999999999985,-0.93500312000000008,1.4378,-1.3174000000000001,-0.078400000000000011,0,1,0,0,0,0,0
1970-01-01 00:03:34.000,-0.31750012,-0.0021911200000000004,-0.93645492000000008,0.77280000000000015,-1.3664000000000001,-0.1512,0,1,0,0,0,0,0
1970-01-01 00:03:34.500,-0.31983276000000005,-0.00146156,-0.93623775999999992,-0.15679999999999999,-6.1641999999999992,-1.3803999999999998,0,1,0,0,0,0,0
1970-01-01 00:03:35.000,-0.41405824000000002,-0.0053387199999999999,-0.89912535999999987,0.86939999999999973,-66.803799999999995,0.59640000000000004,0,1,0,0,0,0,0
1970-01-01 00:03:35.500,-0.49361688000000004,0.0022789599999999991,-0.84504031999999996,-5.628000000000001,-9.8084000000000007,2.6837999999999993,0,1,0,0,0,0,0
1970-01-01 00:03:36.000,-0.24714027999999999,-0.023145840000000004,-0.95544300000000004,0.74199999999999999,-3.8738000000000001,-0.067199999999999982,0,1,0,0,0,0,0
1970-01-01 00:03:36.500,-0.27083267999999999,-0.020852239999999998,-0.95017015999999999,-1.3090000000000002,-12.735799999999999,-0.91559999999999997,0,1,0,0,0,0,0
1970-01-01 00:03:37.000,-0.36727611999999998,-0.012805119999999998,-0.91811100000000012,-4.5990000000000011,-55.649999999999991,3.8542000000000001,0,1,0,0,0,0,0
1970-01-01 00:03:37.500,-0.53572396,-0.0032842400000000016,-0.83554872000000002,-9.9288000000000007,-15.950200000000001,-18.445000000000004,0,1,0,0,0,0,0
1970-01-01 00:03:38.000,-0.52090340000000002,-0.00042455999999999993,-0.84521599999999997,0.2296,18.249000000000002,-16.272199999999998,0,1,0,0,0,0,0
1970-01-01 00:03:38.500,-0.41361416000000001,-0.0096404400000000019,-0.90238764000000005,-0.51660000000000006,45.0884,4.5654000000000003,0,1,0,0,0,0,0
1970-01-01 00:03:39.000,-0.28488951999999995,-0.02718404,-0.94445811999999973,2.3016000000000001,2.7481999999999998,0.083999999999999964,0,1,0,0,0,0,0
1970-01-01 00:03:39.500,-0.26834631999999997,-0.02097912,-0.95109491999999984,-1.0499999999999998,-0.34859999999999991,0.10499999999999998,0,1,0,0,0,0,0
1970-01-01 00:03:40.000,-0.26201695999999997,-0.020944960000000002,-0.95196600000000009,0.67200000000000004,-1.0037999999999998,-0.90440000000000009,0,1,0,0,0,0,0
1970-01-01 00:03:40.500,-0.25574372000000006,-0.018727000000000001,-0.95365204000000003,-0.24359999999999998,-1.1326000000000001,-0.025199999999999986,0,1,0,0,0,0,0
1970-01-01 00:03:41.000,-0.25454811999999999,-0.019634680000000002,-0.95425472,1.0653999999999999,-2.1392000000000007,-0.4788,0,1,0,0,0,0,0
1970-01-01 00:03:41.500,-0.25161768000000001,-0.022323560000000003,-0.95424739999999986,0.70700000000000007,-2.1265999999999998,-1.5456000000000001,0,1,0,0,0,0,0
1970-01-01 00:03:42.000,-0.25551679999999999,-0.024417079999999997,-0.95399119999999993,0.42279999999999995,-4.8524000000000003,-1.113,0,1,0,0,0,0,0
1970-01-01 00:03:42.500,-0.28520183999999998,-0.020361799999999999,-0.94642475999999998,-1.0976000000000001,-18.2378,1.5708000000000002,0,1,0,0,0,0,0
1970-01-01 00:03:43.000,-0.43025252000000003,0.00040747999999999994,-0.88975576000000023,-11.4772,-60.065599999999996,-11.078199999999999,0,1,0,0,0,0,0
1970-01-01 00:03:43.500,-0.51073835999999995,-0.010252879999999999,-0.85536151999999988,-7.519400000000001,4.8705999999999996,-19.658799999999999,0,1,0,0,0,0,0
1970-01-01 00:03:44.000,-0.48626760000000002,0.0046384400000000006,-0.87063103999999991,8.5540000000000003,51.986199999999997,12.945799999999998,0,1,0,0,0,0,0
1970-01-01 00:03:44.500,-0.30611507999999998,-0.020391079999999995,-0.93966108000000004,0.66920000000000002,1.337,-0.52500000000000002,0,1,0,0,0,0,0
1970-01-01 00:03:45.000,-0.29180448000000003,-0.01512556,-0.94410188000000006,-0.41720000000000002,0.0027999999999999926,0.76580000000000004,0,1,0,0,0,0,0
1970-01-01 00:03:45.500,-0.28346699999999997,-0.01413492,-0.94651503999999997,1.4391999999999998,-0.60619999999999996,-0.99819999999999998,0,1,0,0,0,0,0
1970-01-01 00:03:46.000,-0.27889688000000001,-0.021374400000000005,-0.94718116000000008,1.3426,-2.2917999999999998,-1.7710000000000001,0,1,0,0,0,0,0
1970-01-01 00:03:46.500,-0.27872608000000004,-0.020088520000000002,-0.9471372400000001,-0.29400000000000004,-2.1377999999999999,0.29400000000000004,0,1,0,0,0,0,0
1970-01-01 00:03:47.000,-0.27824539999999998,-0.019412640000000002,-0.94779360000000001,0.77559999999999985,-1.6856,-0.55859999999999999,0,1,0,0,0,0,0
1970-01-01 00:03:47.500,-0.27471227999999998,-0.020466720000000001,-0.94848167999999999,0.51379999999999992,-2.2484000000000002,-0.34160000000000001,0,1,0,0,0,0,0
1970-01-01 00:03:48.000,-0.27409984000000004,-0.019881120000000002,-0.95018723999999988,1.4028000000000003,-11.2042,1.7289999999999999,0,1,0,0,0,0,0
1970-01-01 00:03:48.500,-0.56812960000000012,-0.023445960000000002,-0.79718948000000001,-7.2743999999999982,-114.78320000000002,4.8202000000000007,0,1,0,0,0,0,0
1970-01-01 00:03:49.000,-0.61648796000000006,0.017201999999999999,-0.78632415999999994,-6.0395999999999992,44.056599999999996,-9.8293999999999997,0,1,0,0,0,0,0
1970-01-01 00:03:49.500,-0.51623567999999986,0.0071491999999999997,-0.85480519999999982,8.6142000000000003,57.787799999999997,8.5945999999999998,0,1,0,0,0,0,0
1970-01-01 00:03:50.000,-0.32740651999999998,-0.0083692000000000003,-0.93303891999999988,0.20440000000000003,1.9852000000000001,0.58939999999999992,0,1,0,0,0,0,0
1970-01-01 00:03:50.500,-0.31107804,-0.0041602000000000002,-0.93848743999999995,0.60060000000000002,0.9506,0.036399999999999988,0,1,0,0,0,0,0
1970-01-01 00:03:51.000,-0.30233063999999998,-0.0059780000000000007,-0.9405956000000002,0.3667999999999999,-0.6986,-0.19599999999999995,0,1,0,0,0,0,0
1970-01-01 00:03:51.500,-0.29575972,0.0019617599999999999,-0.94295996000000004,-0.89319999999999988,-1.1144000000000001,0.34160000000000001,0,1,0,0,0,0,0
1970-01-01 00:03:52.000,-0.29155071999999999,-0.0029182400000000003,-0.9440530800000001,2.4933999999999998,-1.7878000000000001,-0.45359999999999995,0,1,0,0,0,0,0
1970-01-01 00:03:52.500,-0.28830308000000004,-0.0050581199999999993,-0.94479239999999987,-0.42980000000000002,-2.5367999999999999,-0.72379999999999978,0,1,0,0,0,0,0
1970-01-01 00:03:53.000,-0.32226543999999996,0.0062171199999999996,-0.93827515999999989,-5.8617999999999997,-35.956199999999995,4.1299999999999999,0,1,0,0,0,0,0
1970-01-01 00:03:53.500,-0.51674320000000007,0.041968000000000005,-0.82641823999999997,-21.659399999999994,-80.194800000000001,-5.1883999999999988,0,1,0,0,0,0,0
1970-01-01 00:03:54.000,-0.48582352000000001,0.015415919999999998,-0.85874580000000011,-9.1672000000000011,-74.47999999999999,5.7932000000000006,0,1,0,0,0,0,0
1970-01-01 00:03:54.500,-0.51857319999999996,0.001637240000000001,-0.84764624,4.1677999999999988,52.764600000000002,-9.9707999999999988,0,1,0,0,0,0,0
1970-01-01 00:03:55.000,-0.38082299999999997,-0.013049119999999999,-0.91592963999999999,4.5583999999999998,21.954799999999999,1.2138,0,1,0,0,0,0,0
1970-01-01 00:03:55.500,-0.27954104000000002,-0.036812280000000003,-0.94595383999999982,1.2138000000000002,2.9861999999999993,-0.085400000000000031,0,1,0,0,0,0,0
1970-01-01 00:03:56.000,-0.26126544000000007,-0.031319840000000002,-0.95221975999999997,-0.4032,0.29400000000000004,0.28699999999999998,0,1,0,0,0,0,0
1970-01-01 00:03:56.500,-0.25452127999999996,-0.028035600000000001,-0.95361056,-0.16800000000000001,-1.6058000000000001,-0.06720000000000001,0,1,0,0,0,0,0
1970-01-01 00:03:57.000,-0.25239847999999998,-0.0285236,-0.95399364000000009,0.67620000000000002,-2.5171999999999999,-1.3845999999999998,0,1,0,0,0,0,0
1970-01-01 00:03:57.500,-0.26527923999999997,-0.027105960000000002,-0.94978951999999994,-0.59640000000000004,-11.544400000000001,0.05319999999999997,0,1,0,0,0,0,0
1970-01-01 00:03:58.000,-0.34695092000000005,-0.021342679999999999,-0.92576527999999991,-8.2123999999999988,-63.134399999999999,7.7699999999999996,0,1,0,0,0,0,0
1970-01-01 00:03:58.500,-0.55452904000000014,0.035567880000000003,-0.82466631999999995,-11.359599999999999,-20.584199999999996,-6.6793999999999993,0,1,0,0,0,0,0
1970-01-01 00:03:59.000,-0.54086504000000002,0.018988079999999997,-0.84601388000000011,5.9430000000000005,64.702399999999997,-10.332000000000001,0,1,0,0,0,0,0
1970-01-01 00:03:59.500,-0.33370904000000001,-0.022457760000000004,-0.93159932000000001,6.8558000000000003,3.7072000000000003,-2.5704000000000002,0,1,0,0,0,0,0
1970-01-01 00:04:00.000,-0.31298856000000003,-0.030519520000000005,-0.93666475999999999,1.4350000000000003,1.1395999999999999,0.86239999999999994,0,1,0,0,0,0,0
1970-01-01 00:04:00.500,-0.29391264000000006,-0.023289799999999996,-0.94352359999999991,-2.3268,2.8980000000000001,0.7854000000000001,0,1,0,0,0,0,0
1970-01-01 00:04:01.000,-0.28571180000000002,-0.023192200000000007,-0.94531944000000001,2.6305999999999994,-3.887799999999999,-0.46899999999999997,0,1,0,0,0,0,0
1970-01-01 00:04:01.500,-0.29642096000000001,-0.024758680000000002,-0.94270863999999999,-0.34860000000000002,-8.367799999999999,-1.2627999999999999,0,1,0,0,0,0,0
1970-01-01 00:04:02.000,-0.437309,-0.011938919999999999,-0.88667891999999993,-15.477000000000002,-66.309600000000003,1.0009999999999999,0,1,0,0,0,0,0
1970-01-01 00:04:02.500,-0.49149895999999998,0.051652360000000001,-0.87079695999999995,6.0998000000000001,49.053200000000004,4.3973999999999993,0,1,0,0,0,0,0
1970-01-01 00:04:03.000,-0.36817159999999999,0.0021008399999999988,-0.91967259999999995,9.6473999999999993,14.0182,-2.7454000000000001,0,1,0,0,0,0,0
1970-01-01 00:04:03.500,-0.29119692000000003,-0.020574079999999998,-0.94338696000000011,0.21700000000000003,1.0402,-0.20019999999999999,0,1,0,0,0,0,0
1970-01-01 00:04:04.000,-0.26847563999999996,-0.0066465600000000001,-0.95083627999999987,-3.1583999999999999,2.5718000000000001,0.32339999999999997,0,1,0,0,0,0,0
1970-01-01 00:04:04.500,-0.26035288000000001,-0.0039405999999999998,-0.95302496000000003,2.2189999999999999,-3.0142000000000002,-0.48580000000000007,0,1,0,0,0,0,0
1970-01-01 00:04:05.000,-0.26409584000000003,-0.0091012000000000003,-0.95292735999999989,1.3635999999999999,-8.5344000000000015,-1.0654000000000001,0,1,0,0,0,0,0
1970-01-01 00:04:05.500,-0.43939276000000005,-0.0099942399999999997,-0.88107179999999985,-18.382000000000001,-75.802999999999997,-9.9974000000000007,0,1,0,0,0,0,0
1970-01-01 00:04:06.000,-0.52929455999999997,0.035641079999999999,-0.83976991999999995,11.1286,43.205400000000012,0.27860000000000007,0,1,0,0,0,0,0
1970-01-01 00:04:06.500,-0.38214547999999998,-0.018160920000000001,-0.91588815999999995,8.3271999999999995,19.220600000000001,10.6302,0,1,0,0,0,0,0
1970-01-01 00:04:07.000,-0.29234616000000002,-0.023782679999999997,-0.94370660000000006,-0.87220000000000009,4.482800000000001,1.3748000000000002,0,1,0,0,0,0,0
1970-01-01 00:04:07.500,-0.27343615999999998,-0.01575996,-0.94914292,-0.053200000000000011,0.15680000000000002,-0.5908000000000001,0,1,0,0,0,0,0
1970-01-01 00:04:08.000,-0.26321256000000004,-0.01127036,-0.95168295999999997,-1.3663999999999998,0.21560000000000007,-0.21560000000000001,0,1,0,0,0,0,0
1970-01-01 00:04:08.500,-0.25537283999999999,-0.0049922400000000002,-0.95435231999999981,0.34999999999999998,-2.3142,-0.74060000000000004,0,1,0,0,0,0,0
1970-01-01 00:04:09.000,-0.26036996000000001,-0.0096282400000000015,-0.95200748000000002,3.2998000000000003,-12.479600000000003,0.032200000000000145,0,1,0,0,0,0,0
1970-01-01 00:04:09.500,-0.32223372,-0.028445520000000005,-0.93351472000000002,6.7269999999999994,-15.832599999999998,-1.5623999999999998,0,1,0,0,0,0,0
1970-01-01 00:04:10.000,-0.44388724000000002,-0.059328600000000009,-0.88337759999999999,1.9894000000000003,-53.293800000000005,1.9796,0,1,0,0,0,0,0
1970-01-01 00:04:10.500,-0.45650936000000003,-0.061734440000000008,-0.83002700000000007,-11.936399999999999,-4.7502000000000022,0.74479999999999991,0,1,0,0,0,0,0
1970-01-01 00:04:11.000,-0.50398199999999993,0.013588360000000004,-0.87428860000000019,1.3076000000000005,70.799399999999991,-12.503400000000001,0,1,0,0,0,0,0
1970-01-01 00:04:11.500,-0.34669716,-0.025061240000000002,-0.92077792000000003,-6.6359999999999992,7.7630000000000008,-4.6158000000000001,0,1,0,0,0,0,0
1970-01-01 00:04:12.000,-0.51015032000000005,0.0038991199999999994,-0.84803908000000006,3.0967999999999996,55.7438,-17.983000000000001,0,1,0,0,0,0,0
1970-01-01 00:04:12.500,-0.38134759999999995,-0.0106018,-0.91510003999999978,-2.0453999999999994,10.690400000000002,-2.3925999999999998,0,1,0,0,0,0,0
1970-01-01 00:04:13.000,-0.29969299999999999,-0.018636719999999999,-0.94181315999999993,0.39899999999999997,-0.9645999999999999,0.19320000000000001,0,1,0,0,0,0,0
1970-01-01 00:04:13.500,-0.29034292,-0.017770520000000001,-0.94429463999999996,0.40880000000000005,0.33739999999999992,0.79379999999999995,0,1,0,0,0,0,0
1970-01-01 00:04:14.000,-0.28316444000000002,-0.01848056,-0.94641744000000017,1.4671999999999996,-1.4980000000000002,-0.0126,0,1,0,0,0,0,0
1970-01-01 00:04:14.500,-0.28003635999999998,-0.02227964,-0.94692739999999997,1.1228,-2.1349999999999998,-0.76719999999999999,0,1,0,0,0,0,0
1970-01-01 00:04:15.000,-0.27999975999999999,-0.02478064,-0.94726900000000003,1.0906,-1.9782,-0.88200000000000001,0,1,0,0,0,0,0
1970-01-01 00:04:15.500,-0.28033404000000001,-0.024375600000000004,-0.94708112,-1.554,-4.7081999999999997,0.28560000000000002,0,1,0,0,0,0,0
1970-01-01 00:04:16.000,-0.31487712000000001,-0.0084790000000000004,-0.93691607999999993,-2.9525999999999999,-15.069600000000001,-0.64819999999999989,0,1,0,0,0,0,0
1970-01-01 00:04:16.500,-0.45449147999999995,0.01464244,-0.87474731999999999,-21.582400000000003,-95.850999999999985,-2.9931999999999999,0,1,0,0,0,0,0
1970-01-01 00:04:17.000,-0.64363539999999997,0.067666080000000003,-0.76438855999999988,-7.5082000000000004,34.105399999999996,-20.789999999999999,0,1,0,0,0,0,0
1970-01-01 00:04:17.500,-0.52276756000000002,0.013246759999999998,-0.85676940000000001,19.364799999999999,57.164800000000007,13.395199999999999,0,1,0,0,0,0,0
1970-01-01 00:04:18.000,-0.31862252000000002,-0.010582280000000001,-0.93511536000000006,1.8522000000000001,3.0324,-0.7125999999999999,0,1,0,0,0,0,0
1970-01-01 00:04:18.500,-0.30803535999999998,-0.006868599999999999,-0.93975868000000007,0.74199999999999988,0.54320000000000013,-0.1036,0,1,0,0,0,0,0
1970-01-01 00:04:19.000,-0.29922208,-0.0081252000000000008,-0.94155696000000011,-0.34299999999999997,-0.68879999999999997,0.45500000000000007,0,1,0,0,0,0,0
1970-01-01 00:04:19.500,-0.28964264000000001,-0.0010199199999999999,-0.94511691999999992,0.63840000000000008,-0.62159999999999993,0.88760000000000006,0,1,0,0,0,0,0
1970-01-01 00:04:20.000,-0.28632668,-0.0075883999999999995,-0.94542435999999985,1.9740000000000004,-2.2805999999999997,-1.1297999999999999,0,1,0,0,0,0,0
1970-01-01 00:04:20.500,-0.28347919999999999,-0.01195356,-0.94598799999999994,0.5726,-0.37239999999999995,-1.2502000000000002,0,1,0,0,0,0,0
1970-01-01 00:04:21.000,-0.27503192000000004,-0.011665640000000001,-0.94906483999999991,0.28139999999999998,-5.2891999999999992,-1.3888,0,1,0,0,0,0,0
1970-01-01 00:04:21.500,-0.32818244000000002,-0.015167039999999998,-0.93351715999999996,5.8645999999999994,-43.464399999999998,2.6936,0,1,0,0,0,0,0
1970-01-01 00:04:22.000,-0.60832616000000006,-0.021623280000000002,-0.77817700000000001,-16.352,-100.89239999999999,7.0237999999999996,0,1,0,0,0,0,0
1970-01-01 00:04:22.500,-0.73529155999999996,0.035087199999999999,-0.69136423999999996,-13.0144,66.200400000000002,-17.133199999999999,0,1,0,0,0,0,0
1970-01-01 00:04:23.000,-0.46871424000000006,0.019829880000000001,-0.86840087999999993,9.9511999999999983,64.552599999999998,12.945799999999998,0,1,0,0,0,0,0
1970-01-01 00:04:23.500,-0.30150348000000005,-0.0058364800000000007,-0.94085424000000006,4.1006,0.63280000000000003,-1.5330000000000001,0,1,0,0,0,0,0
1970-01-01 00:04:24.000,-0.29204115999999997,-0.0079739200000000007,-0.94355043999999977,-1.2404000000000002,0.43540000000000006,0.75879999999999992,0,1,0,0,0,0,0
1970-01-01 00:04:24.500,-0.27813804000000003,0.0036648799999999997,-0.94818644000000007,-0.08680000000000003,-0.96460000000000012,-0.39060000000000011,0,1,0,0,0,0,0
1970-01-01 00:04:25.000,-0.27797700000000003,-0.0043798000000000005,-0.94769844000000003,2.2246000000000006,-2.8308000000000004,-0.64119999999999999,0,1,0,0,0,0,0
1970-01-01 00:04:25.500,-0.27861627999999999,-0.0075883999999999995,-0.94748127999999976,0.56559999999999999,-2.4737999999999998,-1.1662000000000001,0,1,0,0,0,0,0
1970-01-01 00:04:26.000,-0.29236324000000002,-0.0069832800000000006,-0.94689323999999997,1.3593999999999999,-26.842200000000002,1.4980000000000002,0,1,0,0,0,0,0
1970-01-01 00:04:26.500,-0.56986932000000012,0.0060878000000000008,-0.82085504000000009,-26.163200000000003,-94.446799999999996,-7.3388,0,1,0,0,0,0,0
1970-01-01 00:04:27.000,-0.66693495999999985,0.069830359999999994,-0.73646764000000009,7.3136000000000001,66.942399999999992,-7.3625999999999996,0,1,0,0,0,0,0
1970-01-01 00:04:27.500,-0.43228991999999999,-0.029387359999999994,-0.89110995999999998,11.610199999999999,35.162399999999998,7.2842000000000011,0,1,0,0,0,0,0
1970-01-01 00:04:28.000,-0.31447207999999999,-0.026242199999999997,-0.93636463999999986,0.8498,1.2208000000000001,-0.50539999999999996,0,1,0,0,0,0,0
1970-01-01 00:04:28.500,-0.30573687999999999,-0.024175520000000002,-0.93939511999999992,-0.71540000000000004,0.25619999999999998,0.55859999999999999,0,1,0,0,0,0,0
1970-01-01 00:04:29.000,-0.29041856000000005,-0.012834400000000001,-0.94433612,-0.92960000000000009,0.037800000000000035,-0.38360000000000016,0,1,0,0,0,0,0
1970-01-01 00:04:29.500,-0.30582960000000003,-0.0076518400000000009,-0.93946587999999986,2.6698000000000004,0.49559999999999993,-0.86940000000000017,0,1,0,0,0,0,0
1970-01-01 00:04:30.000,-0.3262524,-0.026278799999999998,-0.93264363999999988,3.3473999999999999,6.6682000000000006,0.19880000000000003,0,1,0,0,0,0,0
1970-01-01 00:04:30.500,-0.30210372000000002,-0.020361800000000003,-0.94084692000000003,-1.3859999999999999,-0.63839999999999997,-0.24640000000000001,0,1,0,0,0,0,0
1970-01-01 00:04:31.000,-0.29585488000000004,-0.01542324,-0.94289407999999997,1.1214,-0.69440000000000013,-0.43959999999999999,0,1,0,0,0,0,0
1970-01-01 00:04:31.500,-0.29255843999999998,-0.020369120000000001,-0.9438212800000001,1.7527999999999999,-2.8475999999999995,-1.2893999999999999,0,1,0,0,0,0,0
1970-01-01 00:04:32.000,-0.29311964000000001,-0.027230400000000002,-0.94291603999999996,1.1746000000000001,-2.9441999999999995,-0.8862000000000001,0,1,0,0,0,0,0
1970-01-01 00:04:32.500,-0.29640632,-0.028999399999999998,-0.94219868000000007,1.0387999999999997,-2.2987999999999995,-1.3636000000000001,0,1,0,0,0,0,0
1970-01-01 00:04:33.000,-0.30536356000000003,-0.035694760000000006,-0.94152279999999999,3.2689999999999992,-27.307000000000002,2.5396000000000005,0,1,0,0,0,0,0
1970-01-01 00:04:33.500,-0.58933807999999999,-0.023516719999999998,-0.80027119999999996,-2.7229999999999994,-86.787399999999977,2.1952000000000003,0,1,0,0,0,0,0
1970-01-01 00:04:34.000,-0.68673068000000004,-0.0083448000000000012,-0.73586496000000012,-18.0656,33.881399999999992,-2.8265999999999996,0,1,0,0,0,0,0
1970-01-01 00:04:34.500,-0.54803376000000015,0.036731759999999995,-0.83730552000000003,10.407599999999997,62.193599999999989,7.8036000000000003,0,1,0,0,0,0,0
1970-01-01 00:04:35.000,-0.31281532000000001,-0.0015640399999999998,-0.94010028000000001,-1.0597999999999999,4.1719999999999997,0.65659999999999996,0,1,0,0,0,0,0
1970-01-01 00:04:35.500,-0.30433876000000004,0.0015176799999999998,-0.94003196,2.7426000000000004,-1.8984000000000001,-1.0024000000000002,0,1,0,0,0,0,0
1970-01-01 00:04:36.000,-0.30214764,-0.00081007999999999991,-0.94151303999999991,0.88339999999999985,-2.0369999999999999,-0.64820000000000011,0,1,0,0,0,0,0
1970-01-01 00:04:36.500,-0.29749456000000002,-0.011016599999999998,-0.94182048000000007,2.2973999999999997,-1.0135999999999998,-2.9399999999999995,0,1,0,0,0,0,0
1970-01-01 00:04:37.000,-0.29367108000000003,-0.013368760000000002,-0.94342112,0.0013999999999999824,-2.0720000000000001,0.43119999999999997,0,1,0,0,0,0,0
1970-01-01 00:04:37.500,-0.29498624000000001,-0.012029199999999997,-0.94280623999999991,0.7602000000000001,-2.9651999999999998,-0.86520000000000008,0,1,0,0,0,0,0
1970-01-01 00:04:38.000,-0.29560600000000004,-0.011077599999999998,-0.94328935999999997,-1.3006,-4.7362000000000002,-0.52639999999999998,0,1,0,0,0,0,0
1970-01-01 00:04:38.500,-0.46291924000000001,-0.021030359999999998,-0.86892791999999996,-0.40459999999999985,-95.388999999999996,-3.3404000000000003,0,1,0,0,0,0,0
1970-01-01 00:04:39.000,-0.7634223200000001,-0.00037332000000000034,-0.68452491999999987,-8.6618000000000013,-84.5124,1.8087999999999997,0,1,0,0,0,0,0
1970-01-01 00:04:39.500,-0.61912803999999999,0.035018880000000009,-0.83679068000000001,7.2898000000000005,167.14320000000001,5.9290000000000012,0,1,0,0,0,0,0
1970-01-01 00:04:40.000,-0.30137904000000004,0.0044700800000000013,-0.94046872000000026,6.1697999999999986,3.0408000000000004,-1.7570000000000001,0,1,0,0,0,0,0
1970-01-01 00:04:40.500,-0.29364667999999999,-0.016770120000000003,-0.94302584000000012,0.11899999999999991,0.8680000000000001,0.9715999999999998,0,1,0,0,0,0,0
1970-01-01 00:04:41.000,-0.27645444000000002,-0.0097770799999999988,-0.94790584,-0.54459999999999997,0.37379999999999997,-0.20580000000000001,0,1,0,0,0,0,0
1970-01-01 00:04:41.500,-0.26657243999999997,-0.0049434399999999995,-0.95107295999999986,0.28980000000000006,-1.5875999999999999,-0.42980000000000002,0,1,0,0,0,0,0
1970-01-01 00:04:42.000,-0.26534999999999997,-0.0070662400000000005,-0.95096559999999997,-0.085399999999999976,-1.0513999999999999,-1.2684,0,1,0,0,0,0,0
1970-01-01 00:04:42.500,-0.27727183999999999,-0.0020056800000000001,-0.94917951999999994,0.0014000000000000056,-10.376800000000001,-1.2166000000000001,0,1,0,0,0,0,0
1970-01-01 00:04:43.000,-0.46108924000000001,-0.069686399999999996,-0.8535949599999999,5.6853999999999996,-110.20380000000002,-19.163200000000003,0,1,0,0,0,0,0
1970-01-01 00:04:43.500,-0.64901316000000009,-0.038835039999999994,-0.77197939999999998,-20.539400000000001,46.753,0.22680000000000022,0,1,0,0,0,0,0
1970-01-01 00:04:44.000,-0.46002783999999997,0.0084228800000000006,-0.89863491999999989,5.8449999999999989,50.498000000000012,3.8709999999999996,0,1,0,0,0,0,0
1970-01-01 00:04:44.500,-0.29611596000000001,-0.019073480000000004,-0.94214743999999995,0.70279999999999987,1.1577999999999999,0.20860000000000004,0,1,0,0,0,0,0
1970-01-01 00:04:45.000,-0.27755244000000001,-0.0095159999999999984,-0.94835235999999978,-0.97719999999999996,1.2726,0.4032,0,1,0,0,0,0,0
1970-01-01 00:04:45.500,-0.26626744000000002,-0.0052606400000000005,-0.95089484000000002,-0.14419999999999999,-1.1745999999999999,0.001399999999999979,0,1,0,0,0,0,0
1970-01-01 00:04:46.000,-0.26681156,-0.0077323600000000006,-0.95056299999999994,1.2725999999999997,-3.0520000000000005,-1.6044,0,1,0,0,0,0,0
1970-01-01 00:04:46.500,-0.29356372000000003,-0.015010879999999999,-0.94416288000000004,4.3834,-15.577800000000002,1.1816000000000002,0,1,0,0,0,0,0
1970-01-01 00:04:47.000,-0.47991384000000009,-0.075305720000000007,-0.86202028000000008,7.2939999999999996,-102.86219999999999,-7.7643999999999993,0,1,0,0,0,0,0
1970-01-01 00:04:47.500,-0.44696651999999998,-0.011589999999999998,-0.89874715999999977,-5.0147999999999984,32.607399999999998,18.710999999999999,0,1,0,0,0,0,0
1970-01-01 00:04:48.000,-0.40419332000000002,-0.068378560000000005,-0.89089035999999988,10.0534,-13.983199999999997,-8.6366000000000014,0,1,0,0,0,0,0
1970-01-01 00:04:48.500,-0.40408352000000003,-0.0098258799999999986,-0.91217936000000011,-21.673399999999997,22.912399999999998,-16.849,0,1,0,0,0,0,0
1970-01-01 00:04:49.000,-0.32373676000000001,-0.0055510000000000004,-0.93512756000000008,0.10639999999999999,1.7080000000000004,-3.6330000000000009,0,1,0,0,0,0,0
1970-01-01 00:04:49.500,-0.29468855999999999,-0.0134932,-0.94308683999999998,0.82739999999999991,-0.0042000000000000128,-1.2726,0,1,0,0,0,0,0
1970-01-01 00:04:50.000,-0.28374516000000005,-0.011772999999999999,-0.94634423999999995,0.49700000000000005,-0.88759999999999994,0.065799999999999984,0,1,0,0,0,0,0
1970-01-01 00:04:50.500,-0.28387692000000003,-0.011843760000000002,-0.94614171999999996,1.1592,-2.9512,-0.52780000000000005,0,1,0,0,0,0,0
1970-01-01 00:04:51.000,-0.28296191999999998,-0.015411040000000001,-0.94647844000000003,0.73640000000000017,-2.4275999999999995,-0.84840000000000015,0,1,0,0,0,0,0
1970-01-01 00:04:51.500,-0.28552391999999999,-0.013319959999999997,-0.94570008000000005,-0.66499999999999981,-3.4146000000000005,-0.66780000000000006,0,1,0,0,0,0,0
1970-01-01 00:04:52.000,-0.29258772,-0.0077372400000000011,-0.94503152000000001,-2.5354000000000001,-7.2253999999999996,0.55720000000000003,0,1,0,0,0,0,0
1970-01-01 00:04:52.500,-0.36146892000000003,0.025385760000000004,-0.92551152000000003,-16.7636,-31.4986,-10.973199999999999,0,1,0,0,0,0,0
1970-01-01 00:04:53.000,-0.40820223999999994,0.037024559999999998,-0.9024705999999999,1.2586000000000002,9.3002000000000002,-14.182,0,1,0,0,0,0,0
1970-01-01 00:04:53.500,-0.37659935999999999,0.0065026000000000007,-0.91749612000000003,8.3397999999999985,15.206800000000001,-0.67479999999999984,0,1,0,0,0,0,0
1970-01-01 00:04:54.000,-0.30199147999999998,-0.010047920000000002,-0.94141056000000001,0.12740000000000001,-0.31639999999999996,-2.5116000000000001,0,1,0,0,0,0,0
1970-01-01 00:04:54.500,-0.29434452,-0.010816520000000001,-0.94329424000000006,0.64680000000000004,-1.0304,-0.441,0,1,0,0,0,0,0
1970-01-01 00:04:55.000,-0.29117983999999997,-0.012614800000000002,-0.94397743999999983,0.83999999999999997,-1.9502000000000002,-0.2366,0,1,0,0,0,0,0
1970-01-01 00:04:55.500,-0.28902287999999998,-0.014398439999999998,-0.94475579999999992,0.78960000000000019,-2.177,-0.56420000000000003,0,1,0,0,0,0,0
1970-01-01 00:04:56.000,-0.28678540000000002,-0.016213800000000004,-0.94530723999999988,0.58799999999999997,-2.3660000000000001,-1.3748000000000005,0,1,0,0,0,0,0
1970-01-01 00:04:56.500,-0.28762231999999999,-0.0157746,-0.94526087999999986,-0.10359999999999997,-1.8395999999999999,-0.38779999999999992,0,1,0,0,0,0,0
1970-01-01 00:04:57.000,-0.31992548000000004,-0.01441796,-0.93515928000000004,0.74060000000000004,-15.009400000000001,0.13159999999999999,0,1,0,0,0,0,0
1970-01-01 00:04:57.500,-0.39963540000000009,-0.029848519999999996,-0.90849495999999985,4.7263999999999999,-45.764600000000002,0.87360000000000015,0,1,0,0,0,0,0
1970-01-01 00:04:58.000,-0.48789995999999997,-0.0085107200000000011,-0.86384052,-10.9998,4.0082000000000004,-9.282,0,1,0,0,0,0,0
1970-01-01 00:04:58.500,-0.41109120000000005,0.01679452,-0.89960116000000001,-1.4882,37.843400000000003,-3.0450000000000004,0,1,0,0,0,0,0
1970-01-01 00:04:59.000,-0.33961871999999999,-0.0064001200000000005,-0.92959119999999995,1.3230000000000002,2.1461999999999999,0.33600000000000008,0,1,0,0,0,0,0
1970-01-01 00:04:59.500,-0.29798988000000004,-0.0021130400000000001,-0.94237436000000008,0.50819999999999999,-0.88200000000000001,-0.99539999999999995,0,1,0,0,0,0,0
1970-01-01 00:05:00.000,-0.28990859999999996,-0.0036209600000000003,-0.94448496000000004,1.085,-0.85260000000000002,0.064399999999999999,0,1,0,0,0,0,0
1970-01-01 00:05:00.500,-0.2865414,-0.0062561599999999993,-0.94558295999999997,1.1283999999999998,-2.2875999999999999,-0.89740000000000009,0,1,0,0,0,0,0
1970-01-01 00:05:01.000,-0.28790048000000001,-0.0089840800000000002,-0.94489243999999994,-0.22119999999999998,-4.6648000000000005,-0.97160000000000002,0,1,0,0,0,0,0
1970-01-01 00:05:01.500,-0.29968080000000002,-0.0031451599999999997,-0.94246464000000008,-0.23099999999999998,-8.2782000000000018,-0.30379999999999996,0,1,0,0,0,0,0
1970-01-01 00:05:02.000,-0.36122248000000007,0.0063000799999999987,-0.9224663999999998,-8.0681999999999992,-37.697800000000001,-3.5728000000000004,0,1,0,0,0,0,0
1970-01-01 00:05:02.500,-0.54690892000000002,-0.0054973200000000009,-0.8271038799999999,9.1266000000000016,-48.934200000000011,-7.5907999999999989,0,1,0,0,0,0,0
1970-01-01 00:05:03.000,-0.57864355999999995,0.0044725200000000007,-0.81228820000000002,-12.601399999999998,63.006999999999998,-1.1101999999999999,0,1,0,0,0,0,0
1970-01-01 00:05:03.500,-0.34294932,0.010784799999999999,-0.93052572000000011,10.221400000000001,16.338000000000001,16.323999999999998,0,1,0,0,0,0,0
1970-01-01 00:05:04.000,-0.30174992,0.0044895999999999998,-0.94115436000000008,0.58519999999999994,-0.70979999999999988,-0.61459999999999992,0,1,0,0,0,0,0
1970-01-01 00:05:04.500,-0.29396632000000006,0.0076884399999999995,-0.94363827999999994,0.57399999999999995,-0.92820000000000003,0.3836,0,1,0,0,0,0,0
1970-01-01 00:05:05.000,-0.29088703999999999,0.0036380400000000004,-0.94473383999999994,1.1703999999999999,-1.841,-0.3962,0,1,0,0,0,0,0
1970-01-01 00:05:05.500,-0.27643980000000001,-0.0084131200000000014,-0.94818644000000007,1.1325999999999998,-2.9805999999999995,-2.0258000000000003,0,1,0,0,0,0,0
1970-01-01 00:05:06.000,-0.25986976000000001,-0.02953132,-0.95221975999999997,0.58940000000000015,-6.4848000000000017,0.14980000000000002,0,1,0,0,0,0,0
1970-01-01 00:05:06.500,-0.33648820000000002,-0.01409588,-0.93866312000000007,-9.7538,-73.77300000000001,5.0259999999999989,0,1,0,0,0,0,0
1970-01-01 00:05:07.000,-0.46448327999999994,0.012007240000000001,-0.86045136,-6.9552000000000014,35.786799999999999,-17.119199999999999,0,1,0,0,0,0,0
1970-01-01 00:05:07.500,-0.36875232000000002,0.0051532799999999997,-0.92397920000000011,3.5727999999999995,29.063999999999997,-1.7695999999999998,0,1,0,0,0,0,0
1970-01-01 00:05:08.000,-0.27060332000000004,-0.01894904,-0.94981392000000009,3.3712,-0.43680000000000008,-2.6431999999999998,0,1,0,0,0,0,0
1970-01-01 00:05:08.500,-0.26114832000000004,-0.022638320000000003,-0.95241739999999997,0.6552,-0.4844,-0.047599999999999996,0,1,0,0,0,0,0
1970-01-01 00:05:09.000,-0.25474332,-0.023531360000000001,-0.95359591999999993,-0.0027999999999999935,-1.7989999999999997,-0.02240000000000001,0,1,0,0,0,0,0
1970-01-01 00:05:09.500,-0.25207884000000003,-0.01950292,-0.95503552000000003,1.1466000000000001,-1.8633999999999999,-0.86099999999999999,0,1,0,0,0,0,0
1970-01-01 00:05:10.000,-0.25059288000000002,-0.022840840000000001,-0.9543840400000001,-0.23239999999999994,-2.0678000000000001,-0.46060000000000001,0,1,0,0,0,0,0
1970-01-01 00:05:10.500,-0.24636924000000002,-0.023175120000000004,-0.95631895999999994,0.15960000000000002,-1.9516000000000002,-0.8176000000000001,0,1,0,0,0,0,0
1970-01-01 00:05:11.000,-0.30961891999999996,-0.012165839999999999,-0.93767491999999986,-4.0362,-50.276800000000001,3.2018,0,1,0,0,0,0,0
1970-01-01 00:05:11.500,-0.52886756000000001,-0.0089230799999999982,-0.82076232000000005,-7.3541999999999996,-56.347199999999994,8.9908000000000001,0,1,0,0,0,0,0
1970-01-01 00:05:12.000,-0.56682176000000006,0.061636839999999998,-0.86096376000000008,6.9733999999999989,86.762199999999993,-8.3958000000000013,0,1,0,0,0,0,0
1970-01-01 00:05:12.500,-0.27360451999999996,0.002805999999999999,-0.94989688000000005,4.1006,0.15399999999999997,-3.4580000000000002,0,1,0,0,0,0,0
1970-01-01 00:05:13.000,-0.28192980000000001,-0.0072980399999999987,-0.94689080000000014,1.6253999999999997,-0.95200000000000007,-0.87639999999999996,0,1,0,0,0,0,0
1970-01-01 00:05:13.500,-0.27682775999999998,-0.01164368,-0.9482328000000001,0.75879999999999992,-1.5918000000000001,-0.41860000000000008,0,1,0,0,0,0,0
1970-01-01 00:05:14.000,-0.27108887999999998,-0.010328519999999999,-0.94947476000000008,0.26740000000000003,-1.3033999999999997,-0.126,0,1,0,0,0,0,0
1970-01-01 00:05:14.500,-0.26862447999999994,-0.015015760000000003,-0.94999691999999991,1.5049999999999999,-2.5927999999999995,-0.90579999999999994,0,1,0,0,0,0,0
1970-01-01 00:05:15.000,-0.27091563999999996,-0.01436428,-0.95016283999999995,-1.141,-5.4362000000000004,0.48719999999999991,0,1,0,0,0,0,0
1970-01-01 00:05:15.500,-0.40118480000000001,-0.010243120000000001,-0.89865932000000004,0.24919999999999995,-78.974000000000004,1.4140000000000001,0,1,0,0,0,0,0
1970-01-01 00:05:16.000,-0.56480143999999999,0.00067344000000000074,-0.80477787999999995,-3.5252000000000003,-2.6516000000000024,3.7071999999999998,0,1,0,0,0,0,0
1970-01-01 00:05:16.500,-0.54304152000000006,0.067099999999999993,-0.8565375999999999,-5.1366000000000005,65.745400000000004,-1.5554000000000001,0,1,0,0,0,0,0
1970-01-01 00:05:17.000,-0.29333924,0.0082520800000000002,-0.94726411999999993,8.3257999999999992,3.6203999999999992,-3.0071999999999997,0,1,0,0,0,0,0
1970-01-01 00:05:17.500,-0.28294484000000003,-0.00083204000000000004,-0.94675660000000017,3.0533999999999999,-0.88200000000000001,-1.8620000000000001,0,1,0,0,0,0,0
1970-01-01 00:05:18.000,-0.27554188000000002,-0.0048458400000000006,-0.94835235999999989,-0.48159999999999997,-0.96179999999999988,0.59499999999999997,0,1,0,0,0,0,0
1970-01-01 00:05:18.500,-0.26988108,-0.0019983600000000002,-0.95025068000000001,-0.013999999999999999,-1.5848,0.38919999999999993,0,1,0,0,0,0,0
1970-01-01 00:05:19.000,-0.26734592000000001,-0.0033842800000000008,-0.95042392000000009,1.5035999999999998,-2.7971999999999997,-0.84279999999999999,0,1,0,0,0,0,0
1970-01-01 00:05:19.500,-0.26696039999999999,-0.0048092399999999993,-0.95060204000000004,0.84420000000000017,-2.625,-2.9862000000000002,0,1,0,0,0,0,0
1970-01-01 00:05:20.000,-0.40247800000000006,-0.013222360000000002,-0.89319859999999995,1.3510000000000002,-91.817599999999999,1.4294,0,1,0,0,0,0,0
1970-01-01 00:05:20.500,-0.61793243999999992,0.019637119999999997,-0.77752551999999997,-28.015400000000003,2.0958000000000001,-1.0401999999999996,0,1,0,0,0,0,0
1970-01-01 00:05:21.000,-0.51533532000000004,0.060992680000000001,-0.86039524000000001,10.883599999999999,77.910000000000011,-13.526800000000001,0,1,0,0,0,0,0
1970-01-01 00:05:21.500,-0.27313359999999998,0.0097746399999999994,-0.94939180000000023,3.2185999999999995,0.81620000000000015,-1.7723999999999998,0,1,0,0,0,0,0
1970-01-01 00:05:22.000,-0.27011044000000001,0.0076811200000000013,-0.95020920000000009,1.1326000000000001,-0.59360000000000002,-1.6702000000000001,0,1,0,0,0,0,0
1970-01-01 00:05:22.500,-0.26143136,0.0024204800000000005,-0.95244180000000012,1.5371999999999999,-1.0878000000000001,-0.66359999999999997,0,1,0,0,0,0,0
1970-01-01 00:05:23.000,-0.25932075999999998,-0.0032159199999999997,-0.95277851999999996,1.0038,-2.7342,-0.71679999999999988,0,1,0,0,0,0,0
1970-01-01 00:05:23.500,-0.25242044000000002,-0.013017400000000002,-0.95530391999999997,4.0110000000000001,-6.2705999999999991,-3.0617999999999999,0,1,0,0,0,0,0
1970-01-01 00:05:24.000,-0.24603496000000002,-0.023099480000000002,-0.95598956000000002,0.13859999999999997,-3.472,-0.60479999999999989,0,1,0,0,0,0,0
1970-01-01 00:05:24.500,-0.27657887999999997,-0.021669640000000004,-0.94949428000000002,-5.2457999999999991,-22.384599999999999,0.46199999999999997,0,1,0,0,0,0,0
1970-01-01 00:05:25.000,-0.36200572000000003,0.0078299600000000004,-0.92374496000000006,-13.687799999999999,-18.827200000000001,-22.162000000000003,0,1,0,0,0,0,0
1970-01-01 00:05:25.500,-0.39718808000000011,0.034250279999999994,-0.90693580000000007,-2.9889999999999999,11.117399999999998,-3.5546000000000002,0,1,0,0,0,0,0
1970-01-01 00:05:26.000,-0.34570408000000002,0.012658720000000002,-0.92766847999999991,5.8841999999999981,14.175000000000001,-11.654999999999999,0,1,0,0,0,0,0
1970-01-01 00:05:26.500,-0.27112059999999993,-0.024431720000000004,-0.94949183999999998,3.3670000000000004,-0.29819999999999997,-1.3524,0,1,0,0,0,0,0
1970-01-01 00:05:27.000,-0.25657331999999999,-0.027162079999999998,-0.95295907999999996,0.051799999999999985,0.33179999999999998,0.30100000000000005,0,1,0,0,0,0,0
1970-01-01 00:05:27.500,-0.25285476000000001,-0.026259279999999999,-0.95448896000000005,0.60340000000000016,-2.2679999999999993,-0.090999999999999984,0,1,0,0,0,0,0
1970-01-01 00:05:28.000,-0.25072220000000001,-0.028443080000000003,-0.95477199999999995,1.0220000000000002,-2.3925999999999998,-1.1283999999999998,0,1,0,0,0,0,0
1970-01-01 00:05:28.500,-0.25143956000000001,-0.029289760000000001,-0.95435231999999981,0.26039999999999996,-5.0651999999999999,-0.51100000000000001,0,1,0,0,0,0,0
1970-01-01 00:05:29.000,-0.26871476,-0.023387399999999996,-0.95026776000000002,-1.6142000000000001,-7.2715999999999994,0.91980000000000006,0,1,0,0,0,0,0
1970-01-01 00:05:29.500,-0.32051596000000004,-0.024016920000000001,-0.93112351999999998,-7.2043999999999997,-40.118400000000001,2.4415999999999993,0,1,0,0,0,0,0
1970-01-01 00:05:30.000,-0.39119300000000001,0.048309560000000001,-0.91495607999999995,-2.7048000000000001,27.682200000000002,-4.9938000000000011,0,1,0,0,0,0,0
1970-01-01 00:05:30.500,-0.33270864000000006,-0.0034623599999999998,-0.93409300000000006,9.5969999999999995,4.5387999999999993,-5.4110000000000005,0,1,0,0,0,0,0
1970-01-01 00:05:31.000,-0.27549308,-0.032522759999999998,-0.94785459999999988,2.3561999999999999,-0.58939999999999992,-0.35980000000000006,0,1,0,0,0,0,0
1970-01-01 00:05:31.500,-0.26404216000000003,-0.030858679999999999,-0.95141456000000002,0.4158,-0.71679999999999988,-0.55019999999999991,0,1,0,0,0,0,0
1970-01-01 00:05:32.000,-0.26208284000000004,-0.036055879999999998,-0.95139503999999997,1.7303999999999999,-2.9540000000000002,-1.6463999999999999,0,1,0,0,0,0,0
1970-01-01 00:05:32.500,-0.26241711999999995,-0.038957039999999998,-0.95113639999999988,0.68740000000000012,-2.2274000000000003,-1.1941999999999999,0,1,0,0,0,0,0
1970-01-01 00:05:33.000,-0.26277580000000006,-0.038547120000000004,-0.95100708,-0.36680000000000001,-3.0099999999999998,0.21839999999999996,0,1,0,0,0,0,0
1970-01-01 00:05:33.500,-0.26564035999999996,-0.033471919999999995,-0.95152192000000002,-2.2134,-10.607799999999999,1.7177999999999998,0,1,0,0,0,0,0
1970-01-01 00:05:34.000,-0.42386459999999998,0.0056607999999999988,-0.89301072000000004,-8.5442,-64.573599999999999,1.8662000000000001,0,1,0,0,0,0,0
1970-01-01 00:05:34.500,-0.52913352000000013,0.01236104,-0.84590407999999984,-3.8765999999999998,24.698800000000002,1.3957999999999995,0,1,0,0,0,0,0
1970-01-01 00:05:35.000,-0.41534900000000002,0.02314828,-0.90059667999999993,7.2688000000000015,32.743199999999995,-8.0850000000000009,0,1,0,0,0,0,0
1970-01-01 00:05:35.500,-0.29071380000000002,-0.019039320000000002,-0.94480459999999988,4.9392000000000005,1.1157999999999999,-0.8862000000000001,0,1,0,0,0,0,0
1970-01-01 00:05:36.000,-0.27289448000000005,-0.020793680000000002,-0.94905507999999994,0.21839999999999996,0.28839999999999999,0.053199999999999983,0,1,0,0,0,0,0
1970-01-01 00:05:36.500,-0.26640896000000003,-0.020049480000000001,-0.95079967999999992,0.31360000000000005,-1.6128,-0.1862,0,1,0,0,0,0,0
1970-01-01 00:05:37.000,-0.26455944000000003,-0.021167000000000002,-0.95140723999999988,0.84559999999999991,-2.5872000000000002,-1.1816,0,1,0,0,0,0,0
1970-01-01 00:05:37.500,-0.26256108,-0.020342279999999997,-0.95165611999999999,-0.95620000000000005,-1.1634,-0.53060000000000007,0,1,0,0,0,0,0
1970-01-01 00:05:38.000,-0.26396407999999999,-0.017006799999999999,-0.95137307999999987,0.063,-5.4529999999999994,-0.57959999999999989,0,1,0,0,0,0,0
1970-01-01 00:05:38.500,-0.31290804,-0.00229116,-0.93759196,-11.718,-46.554200000000002,-4.3273999999999999,0,1,0,0,0,0,0
1970-01-01 00:05:39.000,-0.47007087999999997,0.037651640000000007,-0.8705285599999999,-12.280799999999999,5.0847999999999987,-2.3211999999999997,0,1,0,0,0,0,0
1970-01-01 00:05:39.500,-0.39139308,0.02935076,-0.91507075999999987,14.202999999999999,31.354400000000002,-4.7054000000000009,0,1,0,0,0,0,0
1970-01-01 00:05:40.000,-0.28514328,0.00097355999999999994,-0.94630763999999989,1.1928000000000001,0.075600000000000001,-0.97439999999999993,0,1,0,0,0,0,0
1970-01-01 00:05:40.500,-0.27325803999999998,0.0010321200000000001,-0.94927955999999991,1.7486000000000002,-0.43119999999999997,-1.2529999999999999,0,1,0,0,0,0,0
1970-01-01 00:05:41.000,-0.26677496000000006,-0.00291092,-0.95105587999999996,0.6552,-1.3048,0.068600000000000008,0,1,0,0,0,0,0
1970-01-01 00:05:41.500,-0.25679292000000004,-0.014486279999999997,-0.95314940000000004,0.74899999999999989,-2.5718000000000001,-1.0234000000000001,0,1,0,0,0,0,0
1970-01-01 00:05:42.000,-0.24333632000000002,-0.02451712,-0.9566898399999999,0.025199999999999986,-2.7314000000000003,-0.76439999999999997,0,1,0,0,0,0,0
1970-01-01 00:05:42.500,-0.24437819999999996,-0.02587132,-0.95595295999999985,0.59640000000000004,-3.3781999999999992,-0.65240000000000009,0,1,0,0,0,0,0
1970-01-01 00:05:43.000,-0.24486619999999998,-0.022157639999999999,-0.95670691999999991,-0.95620000000000005,-2.0495999999999999,0.19459999999999997,0,1,0,0,0,0,0
1970-01-01 00:05:43.500,-0.25207884000000003,-0.018016960000000002,-0.95780980000000004,-8.7919999999999998,-19.9682,-2.0859999999999999,0,1,0,0,0,0,0
1970-01-01 00:05:44.000,-0.33693715999999996,0.04917332,-0.92933988000000001,-13.396599999999999,-6.7830000000000021,-9.0033999999999992,0,1,0,0,0,0,0
1970-01-01 00:05:44.500,-0.34902492000000002,0.01700192,-0.92507720000000004,13.885199999999999,13.855800000000002,-10.6204,0,1,0,0,0,0,0
1970-01-01 00:05:45.000,-0.24793572,-0.030114480000000002,-0.95676059999999996,3.8598000000000003,1.7430000000000001,-1.9753999999999998,0,1,0,0,0,0,0
1970-01-01 00:05:45.500,-0.24023996,-0.02711328,-0.95749503999999996,-0.53620000000000001,-0.1232,0.12039999999999999,0,1,0,0,0,0,0
1970-01-01 00:05:46.000,-0.23281260000000001,-0.023599679999999998,-0.95917620000000003,0.088200000000000001,-1.9669999999999999,-0.32619999999999999,0,1,0,0,0,0,0
1970-01-01 00:05:46.500,-0.23210500000000003,-0.020905920000000001,-0.95959587999999985,0.43819999999999998,-2.52,-1.1382000000000003,0,1,0,0,0,0,0
1970-01-01 00:05:47.000,-0.23242952000000003,-0.024221879999999998,-0.95871992000000006,-0.030800000000000022,-3.263399999999999,-0.44519999999999987,0,1,0,0,0,0,0
1970-01-01 00:05:47.500,-0.24360472000000002,-0.020591160000000001,-0.95648975999999986,2.3799999999999999,-15.577800000000002,-0.19739999999999999,0,1,0,0,0,0,0
1970-01-01 00:05:48.000,-0.29910007999999999,-0.039125400000000005,-0.94855243999999994,-9.9049999999999994,-50.467200000000005,-0.16660000000000014,0,1,0,0,0,0,0
1970-01-01 00:05:48.500,-0.3703188,0.01225856,-0.90895612000000003,-0.83299999999999941,40.251399999999997,-11.569600000000001,0,1,0,0,0,0,0
1970-01-01 00:05:49.000,-0.32749191999999999,-0.016521240000000003,-0.93516660000000007,7.0728,5.4879999999999995,-5.2205999999999992,0,1,0,0,0,0,0
1970-01-01 00:05:49.500,-0.26879772000000002,-0.044681280000000004,-0.9493112800000002,1.5582,0.027999999999999997,-1.1144000000000001,0,1,0,0,0,0,0
1970-01-01 00:05:50.000,-0.25438220000000006,-0.035121360000000004,-0.95379843999999991,-1.6072000000000002,0.98000000000000009,1.0051999999999999,0,1,0,0,0,0,0
1970-01-01 00:05:50.500,-0.24279464000000001,-0.026312960000000003,-0.95670204000000003,-1.5526,-1.3888,0.33039999999999997,0,1,0,0,0,0,0
1970-01-01 00:05:51.000,-0.24323384000000003,-0.024177960000000002,-0.95669472,1.2978000000000001,-3.3361999999999994,-1.4307999999999998,0,1,0,0,0,0,0
1970-01-01 00:05:51.500,-0.24405368000000002,-0.02618852,-0.95620184000000008,0.061599999999999995,-2.7566000000000002,-0.58660000000000001,0,1,0,0,0,0,0
1970-01-01 00:05:52.000,-0.24842127999999997,-0.025383320000000001,-0.95625063999999982,0.54320000000000002,-7.0952000000000002,-0.84140000000000004,0,1,0,0,0,0,0
1970-01-01 00:05:52.500,-0.36399432000000004,-0.00062708000000000013,-0.9201606,-4.7460000000000004,-65.585800000000006,2.8728000000000007,0,1,0,0,0,0,0
1970-01-01 00:05:53.000,-0.41595900000000002,-0.014403319999999999,-0.90751895999999999,5.0119999999999996,42.796600000000005,-9.3926000000000016,0,1,0,0,0,0,0
1970-01-01 00:05:53.500,-0.35062067999999996,-0.03193472,-0.92579212,-4.8117999999999999,14.669200000000004,-2.2721999999999998,0,1,0,0,0,0,0
1970-01-01 00:05:54.000,-0.25628296,-0.019678600000000004,-0.95410587999999985,-0.72240000000000004,0.70139999999999991,-0.61599999999999999,0,1,0,0,0,0,0
1970-01-01 00:05:54.500,-0.24425620000000003,-0.018805080000000002,-0.95637263999999989,0.046199999999999991,-1.288,-0.15679999999999997,0,1,0,0,0,0,0
1970-01-01 00:05:55.000,-0.24323140000000001,-0.016516359999999997,-0.95687040000000001,-0.22120000000000004,-2.5354000000000001,-0.22960000000000005,0,1,0,0,0,0,0
1970-01-01 00:05:55.500,-0.23994716000000005,-0.014593640000000001,-0.95730472000000011,0.20860000000000001,-2.1657999999999999,-0.60340000000000005,0,1,0,0,0,0,0
1970-01-01 00:05:56.000,-0.25164207999999999,-0.01643828,-0.9557235999999999,1.4756,-16.514400000000002,-0.60619999999999996,0,1,0,0,0,0,0
1970-01-01 00:05:56.500,-0.38479775999999999,-0.00027816000000000006,-0.91800607999999995,-18.678800000000003,-51.52000000000001,-0.1736,0,1,0,0,0,0,0
1970-01-01 00:05:57.000,-0.43418580000000001,0.061170799999999997,-0.88583955999999997,-0.32480000000000059,36.149399999999993,-14.933800000000002,0,1,0,0,0,0,0
1970-01-01 00:05:57.500,-0.35205295999999997,-0.015808760000000002,-0.9272097600000001,9.0342000000000002,12.894,0.24780000000000013,0,1,0,0,0,0,0
1970-01-01 00:05:58.000,-0.27035200000000004,-0.01036756,-0.94959919999999998,0.60760000000000003,0.68599999999999994,-0.55580000000000007,0,1,0,0,0,0,0
1970-01-01 00:05:58.500,-0.26251471999999998,-0.014664400000000001,-0.95241983999999991,1.2025999999999999,-1.2726,0.25900000000000001,0,1,0,0,0,0,0
1970-01-01 00:05:59.000,-0.25801047999999999,-0.013868960000000001,-0.95328116000000007,0.53620000000000001,-2.3100000000000001,-0.92400000000000004,0,1,0,0,0,0,0
1970-01-01 00:05:59.500,-0.37273928000000001,-0.074720120000000001,-0.89944011999999995,3.9941999999999998,-1.4573999999999998,-6.3629999999999995,0,1,0,0,0,0,1
1970-01-01 00:06:00.000,-0.52794768000000003,-0.19695436000000005,-0.83012215999999994,-18.669000000000004,1.1605999999999999,2.2189999999999994,0,0,0,0,0,0,1
1970-01-01 00:06:00.500,-0.54622815999999996,-0.19980427999999997,-0.82347559999999986,8.0696000000000012,-8.4224000000000014,-13.344799999999998,0,0,0,0,0,0,1
1970-01-01 00:06:01.000,-0.53846408000000001,-0.17487480000000005,-0.82799691999999991,0.15819999999999951,-6.7312000000000003,-7.2729999999999988,0,0,0,0,0,0,1
1970-01-01 00:06:01.500,-0.54350999999999994,-0.20545044000000004,-0.82094043999999977,-11.5878,6.3924000000000003,27.600999999999999,0,0,0,0,0,0,1
1970-01-01 00:06:02.000,-0.56252735999999992,-0.24923867999999996,-0.81441099999999989,10.603599999999998,-14.3332,-32.176200000000001,0,0,0,0,0,0,1
1970-01-01 00:06:02.500,-0.55839643999999999,-0.18587919999999999,-0.78793699999999989,-2.4654000000000011,-1.4462000000000002,7.3374000000000015,0,0,0,0,0,0,1
1970-01-01 00:06:03.000,-0.57822876000000001,-0.20867611999999994,-0.83959423999999994,4.9657999999999989,-6.9565999999999999,-22.469999999999999,0,0,0,0,0,0,1
1970-01-01 00:06:03.500,-0.58422627999999999,-0.20039476000000001,-0.8013008800000001,0.54459999999999997,-0.42980000000000046,27.923000000000002,0,0,0,0,0,0,1
1970-01-01 00:06:04.000,-0.59247348,-0.24557380000000001,-0.82831655999999998,-7.2170000000000005,10.966200000000001,21.767199999999999,0,0,0,0,0,0,1
1970-01-01 00:06:04.500,-0.53232748000000008,-0.25206419999999996,-0.81196855999999995,4.9629999999999992,-11.426799999999998,-40.139400000000002,0,0,0,0,0,0,1
1970-01-01 00:06:05.000,-0.59941527999999988,-0.16324087999999995,-0.84536727999999994,-0.39199999999999974,-5.8337999999999974,-9.1266000000000016,0,0,0,0,0,0,1
1970-01-01 00:06:05.500,-0.54363687999999999,-0.37837567999999999,-0.78464056000000015,2.7622000000000004,-0.19880000000000028,-13.840400000000002,0,0,0,0,0,0,1
1970-01-01 00:06:06.000,-0.58440196,-0.093420280000000022,-0.82242884000000005,-13.241200000000001,-0.41579999999999928,10.323599999999999,0,0,0,0,0,0,1
1970-01-01 00:06:06.500,-0.55080560000000001,-0.26502303999999999,-0.81837844000000004,-11.496799999999999,-1.8899999999999997,42.810600000000015,0,0,0,0,0,0,1
1970-01-01 00:06:07.000,-0.59952020000000006,-0.23138763999999998,-0.84366659999999993,12.308799999999998,-3.2634000000000003,-21.611800000000002,0,0,0,0,0,0,1
1970-01-01 00:06:07.500,-0.5680490800000001,-0.11694676,-0.79167264000000004,-10.177999999999999,-1.9698000000000007,2.6529999999999991,0,0,0,0,0,0,1
1970-01-01 00:06:08.000,-0.57774075999999996,-0.23128028,-0.83060528000000022,22.754200000000001,-4.006800000000001,-23.007600000000004,0,0,0,0,0,0,1
1970-01-01 00:06:08.500,-0.61369415999999999,-0.11281340000000001,-0.84118755999999995,-6.2453999999999983,-0.60900000000000087,-13.232800000000003,0,0,0,0,0,0,1
1970-01-01 00:06:09.000,-0.58919655999999998,-0.21173099999999997,-0.80038344000000006,-8.1829999999999998,5.229000000000001,60.9574,0,0,0,0,0,0,1
1970-01-01 00:06:09.500,-0.68178723999999991,-0.20851507999999996,-0.84340307999999997,-22.740200000000002,-16.237199999999998,-23.291799999999999,0,0,0,0,0,0,1
1970-01-01 00:06:10.000,-0.63162572000000006,-0.045886639999999999,-0.81093888000000003,4.5108000000000006,1.7625999999999993,10.511199999999999,0,0,0,0,0,0,1
1970-01-01 00:06:10.500,-0.60396343999999991,-0.26734592000000001,-0.79707480000000008,-12.118400000000001,-0.96880000000000055,17.606400000000004,0,0,0,0,0,0,1
1970-01-01 00:06:11.000,-0.61003659999999993,-0.066350920000000008,-0.82120884000000005,-0.5025999999999996,-2.9442000000000004,-18.692799999999998,0,0,0,0,0,0,1
1970-01-01 00:06:11.500,-0.58030276000000003,-0.10245560000000001,-0.78973039999999994,-0.22539999999999963,-6.1726000000000001,16.447200000000006,0,0,0,0,0,0,1
1970-01-01 00:06:12.000,-0.65822172000000012,-0.13965339999999998,-0.83440924000000005,0.44939999999999974,-8.3916000000000004,-13.287400000000002,0,0,0,0,0,0,1
1970-01-01 00:06:12.500,-0.56689739999999988,-0.034674839999999992,-0.75703439999999989,2.8027999999999995,6.5029999999999983,-0.50679999999999892,0,0,0,0,0,0,1
1970-01-01 00:06:13.000,-0.64997696000000005,-0.13513939999999999,-0.87827067999999986,8.8550000000000004,-0.83299999999999896,-35.474600000000002,0,0,0,0,0,0,1
1970-01-01 00:06:13.500,-0.59701919999999997,0.024441479999999995,-0.78956204000000019,-11.482799999999999,0.43119999999999936,13.292999999999997,0,0,0,0,0,0,1
1970-01-01 00:06:14.000,-0.61274499999999998,-0.025415040000000007,-0.82068911999999983,8.2390000000000008,-9.6992000000000012,-8.9222000000000001,0,0,0,0,0,0,1
1970-01-01 00:06:14.500,-0.63121335999999995,-0.18411752000000001,-0.78273736000000005,2.4541999999999997,2.5605999999999978,-5.1575999999999995,0,0,0,0,0,0,1
1970-01-01 00:06:15.000,-0.63000067999999987,-0.15853412,-0.80822804000000004,-8.4770000000000021,-3.6077999999999992,-24.336199999999998,0,0,0,0,0,0,1
1970-01-01 00:06:15.500,-0.63657160000000002,-0.016450479999999996,-0.80654688000000008,-9.0313999999999997,-0.30380000000000051,28.8582,0,0,0,0,0,0,1
1970-01-01 00:06:16.000,-0.60176987999999998,-0.071365120000000004,-0.81332276000000003,-13.1348,10.281599999999999,24.680599999999998,0,0,0,0,0,0,1
1970-01-01 00:06:16.500,-0.58081516,-0.082323159999999992,-0.81987660000000007,3.3250000000000011,-5.2444000000000006,9.5633999999999997,0,0,0,0,0,0,1
1970-01-01 00:06:17.000,-0.59856372000000002,-0.063464399999999976,-0.84532092000000003,18.400200000000002,3.1191999999999984,-69.582800000000006,0,0,0,0,0,0,1
1970-01-01 00:06:17.500,-0.56835651999999992,-0.036795200000000007,-0.87170708000000008,-19.524400000000004,-22.811600000000002,35.875000000000007,0,0,0,0,0,0,1
1970-01-01 00:06:18.000,-0.50403567999999999,-0.14006331999999999,-0.86262296000000005,1.4853999999999994,-2.1461999999999999,15.253,0,0,0,0,0,0,1
1970-01-01 00:06:18.500,-0.5351090799999999,-0.061736880000000015,-0.88557115999999991,14.999600000000001,-1.3720000000000006,-46.178999999999995,0,0,0,0,0,0,1
1970-01-01 00:06:19.000,-0.51605267999999993,0.008896239999999998,-0.88553455999999997,-14.275799999999998,1.8745999999999989,59.844400000000007,0,0,0,0,0,0,1
1970-01-01 00:06:19.500,-0.48374951999999993,-0.13983396000000001,-0.87539635999999998,-8.4784000000000006,-4.9994000000000005,6.1544000000000008,0,0,0,0,0,0,1
1970-01-01 00:06:20.000,-0.49394139999999997,-0.0020447199999999955,-0.84606756000000005,-8.5540000000000003,-8.5189999999999984,7.0097999999999976,0,0,0,0,0,0,1
1970-01-01 00:06:20.500,-0.51571107999999999,-0.12652619999999998,-0.88535887999999985,18.4282,1.0136000000000001,-62.589800000000004,0,0,0,0,0,0,1
1970-01-01 00:06:21.000,-0.51951016000000005,-0.026025040000000003,-0.87822431999999995,2.9946000000000015,-9.6809999999999992,18.673200000000001,0,0,0,0,0,0,1
1970-01-01 00:06:21.500,-0.48192440000000003,-0.09078507999999999,-0.85664007999999991,9.9932000000000016,-3.8892000000000007,-16.382799999999996,0,0,0,0,0,0,1
1970-01-01 00:06:22.000,-0.50652691999999999,-0.12428384000000001,-0.86610239999999994,5.0357999999999983,4.7460000000000004,5.9374000000000002,0,0,0,0,0,0,1
1970-01-01 00:06:22.500,-0.51799980000000001,-0.20792460000000001,-0.84541363999999997,-16.410800000000005,-5.5244000000000018,-24.277400000000004,0,0,0,0,0,0,1
1970-01-01 00:06:23.000,-0.55224764000000004,-0.057986600000000006,-0.8920493599999999,-15.743,-0.36260000000000076,34.333600000000004,0,0,0,0,0,0,1
1970-01-01 00:06:23.500,-0.51915636000000009,0.017977919999999994,-0.88622020000000001,3.5602000000000031,7.3877999999999995,26.317200000000003,0,0,0,0,0,0,1
1970-01-01 00:06:24.000,-0.48394715999999993,-0.25100768000000001,-0.89854708000000005,5.7302,-11.912599999999999,-38.4846,0,0,0,0,0,0,1
1970-01-01 00:06:24.500,-0.50558508000000002,0.087891239999999995,-0.86767864000000006,-0.65099999999999969,5.5720000000000001,-9.4177999999999944,0,0,0,0,0,0,1
1970-01-01 00:06:25.000,-0.50129555999999997,-0.11687356000000002,-0.88892127999999981,6.1796000000000006,-2.0719999999999996,-2.2651999999999961,0,0,0,0,0,0,1
1970-01-01 00:06:25.500,-0.47804479999999999,-0.10674999999999998,-0.88410716000000011,-14.004200000000003,-4.3792,12.936,0,0,0,0,0,0,1
1970-01-01 00:06:26.000,-0.52065208000000007,1.7079999999990401e-05,-0.86919875999999985,1.5484000000000002,-0.96320000000000039,34.921599999999991,0,0,0,0,0,0,1
